File: __exampleData/ML Plastics copy/top class a spectra/All Class A spectra/Class_A_X60_Y27_prob0.670.csv
# Class A Classified Spectrum
# Position: X=60, Y=27
# Classification Probability: 0.6700
# Data Type: processed
# Original Filename: Steno-CT-33_01_Y027_X060.txt
#
Wavenumber,Intensity
100.0,2.43142
108.521,7.06915
117.043,8.11306
125.564,2.89751
134.085,1.99332
142.607,-5.80916
151.128,1.90449
159.649,8.71999
168.17,9.86548
176.692,2.44873
185.213,4.29826
193.734,2.32813
202.256,1.79841
210.777,5.99477
219.298,9.80209
227.82,7.72992
236.341,9.38812
244.862,10.3296
253.383,11.9462
261.905,7.16295
270.426,9.05471
278.947,7.70931
287.469,10.3595
295.99,6.95781
304.511,3.99478
313.033,0.256113
321.554,2.36619
330.075,6.26268
338.596,5.95645
347.118,4.88834
355.639,4.71334
364.16,10.175
372.682,12.3771
381.203,13.0494
389.724,7.12531
398.246,9.07782
406.767,6.33162
415.288,8.17611
423.81,6.10806
432.331,5.56533
440.852,3.674
449.373,8.55668
457.895,13.9379
466.416,16.6802
474.937,9.16197
483.459,7.39103
491.98,8.90824
500.501,15.2953
509.023,10.9774
517.544,10.5784
526.065,12.8907
534.586,9.78551
543.108,4.27106
551.629,0.942303
560.15,-0.640779
568.672,3.56729
577.193,21.0946
585.714,24.6777
594.236,9.97198
602.757,-0.73084
611.278,6.16574
619.799,6.6191
628.321,10.6575
636.842,15.4614
645.363,10.8741
653.885,4.33066
662.406,6.03468
670.927,9.58225
679.449,16.9752
687.97,16.7567
696.491,18.833
705.013,10.5895
713.534,12.3418
722.055,3.90777
730.576,3.11819
739.098,-1.94082
747.619,3.23157
756.14,10.9741
764.662,12.19
773.183,7.43203
781.704,7.93936
790.226,14.7846
798.747,13.001
807.268,15.4026
815.789,14.0598
824.311,17.1485
832.832,9.79922
841.353,7.8487
849.875,5.37186
858.396,7.40687
866.917,9.01771
875.439,11.349
883.96,14.8605
892.481,11.1535
901.003,4.98311
909.524,2.08576
918.045,3.2036
926.566,2.66847
935.088,3.46763
943.609,8.51142
952.13,11.0017
960.652,8.8458
969.173,8.45815
977.694,9.53684
986.216,6.75833
994.737,3.71499
1003.26,2.39709
1011.78,6.8363
1020.3,7.22704
1028.82,16.3523
1037.34,11.8989
1045.86,15.036
1054.39,13.5192
1062.91,21.8701
1071.43,15.0644
1079.95,10.1309
1088.47,7.66755
1096.99,12.3273
1105.51,16.1934
1114.04,8.2504
1122.56,-1.47151
1131.08,-2.30092
1139.6,3.67101
1148.12,9.14128
1156.64,10.875
1165.16,6.44498
1173.68,4.61732
1182.21,6.85696
1190.73,13.5465
1199.25,10.6727
1207.77,6.86594
1216.29,1.46032
1224.81,7.87508
1233.33,20.793
1241.85,17.0031
1250.38,14.1466
1258.9,12.0745
1267.42,16.6177
1275.94,12.0793
1284.46,9.49192
1292.98,6.06735
1301.5,6.71813
1310.03,17.973
1318.55,25.3743
1327.07,31.7192
1335.59,33.3655
1344.11,33.6317
1352.63,30.8769
1361.15,26.4671
1369.67,20.3162
1378.2,23.1403
1386.72,31.1209
1395.24,44.4035
1403.76,38.2079
1412.28,29.092
1420.8,24.702
1429.32,31.4111
1437.84,28.5482
1446.37,35.8425
1454.89,42.8937
1463.41,44.5924
1471.93,38.2933
1480.45,44.4254
1488.97,51.7845
1497.49,50.0103
1506.02,42.2014
1514.54,35.1924
1523.06,51.8284
1531.58,62.7262
1540.1,57.0191
1548.62,57.2939
1557.14,70.3362
1565.66,77.6386
1574.19,68.4022
1582.71,65.8698
1591.23,58.5513
1599.75,58.7797
1608.27,65.2501
1616.79,70.7933
1625.31,67.9695
1633.83,66.8381
1642.36,65.832
1650.88,65.4667
1659.4,60.2485
1667.92,61.4382
1676.44,56.7211
1684.96,59.447
1693.48,50.5025
1702.01,53.6744
1710.53,51.0139
1719.05,63.9938
1727.57,59.3835
1736.09,51.549
1744.61,40.9088
1753.13,39.9
1761.65,42.3367
1770.18,47.6025
1778.7,45.6414
1787.22,44.7529
1795.74,43.6921
1804.26,50.3481
1812.78,39.369
1821.3,35.7211
1829.82,28.0722
1838.35,25.8978
1846.87,18.7886
1855.39,21.8941
1863.91,25.7092
1872.43,28.5539
1880.95,27.9587
1889.47,21.61
1897.99,12.7275
1906.52,6.86485
1915.04,17.4193
1923.56,23.0771
1932.08,19.2617
1940.6,6.18879
1949.12,5.53364
1957.64,7.60547
1966.17,7.26853
1974.69,4.05046
1983.21,1.89902
1991.73,1.04368
2000.25,0.390384
2008.77,-0.134036
2017.29,0.0
2025.81,0.0
2034.34,0.0
2042.86,0.0
2051.38,0.0
2059.9,0.0
2068.42,0.0
2076.94,0.0
2085.46,0.0
2093.98,0.0
2102.51,0.0
2111.03,0.0
2119.55,0.0
2128.07,0.0
2136.59,0.0
2145.11,0.0
2153.63,0.0
2162.16,0.0
2170.68,0.0
2179.2,0.0
2187.72,0.0
2196.24,0.0
2204.76,0.0
2213.28,0.0
2221.8,0.0
2230.33,0.0
2238.85,0.0
2247.37,0.0
2255.89,0.0
2264.41,0.0
2272.93,0.0
2281.45,0.0
2289.97,0.0
2298.5,0.0
2307.02,0.0
2315.54,0.0
2324.06,0.0
2332.58,0.0
2341.1,0.0
2349.62,0.0
2358.15,0.0
2366.67,0.0
2375.19,0.0
2383.71,0.0
2392.23,0.0
2400.75,0.0
2409.27,0.0
2417.79,0.0
2426.32,0.0
2434.84,0.0
2443.36,0.0
2451.88,0.0
2460.4,0.0
2468.92,0.0
2477.44,0.0
2485.96,0.0
2494.49,0.0
2503.01,0.0
2511.53,0.0
2520.05,0.0
2528.57,0.0
2537.09,0.0
2545.61,0.0
2554.14,0.0
2562.66,0.0
2571.18,0.0
2579.7,0.0
2588.22,0.0
2596.74,0.0
2605.26,0.0
2613.78,0.0
2622.31,0.0
2630.83,0.0
2639.35,0.0
2647.87,0.0
2656.39,0.0
2664.91,0.0
2673.43,0.0
2681.95,0.0
2690.48,0.0
2699,0.0
2707.52,0.0
2716.04,0.0
2724.56,0.0
2733.08,0.0
2741.6,0.0
2750.13,0.0
2758.65,0.0
2767.17,0.0
2775.69,0.0
2784.21,0.0
2792.73,0.0
2801.25,0.0
2809.77,0.0
2818.3,0.0
2826.82,0.0
2835.34,0.0
2843.86,0.0
2852.38,0.0
2860.9,0.0
2869.42,0.0
2877.94,0.0
2886.47,0.0
2894.99,0.0
2903.51,0.0
2912.03,0.0
2920.55,0.0
2929.07,0.0
2937.59,0.0
2946.12,0.0
2954.64,0.0
2963.16,0.0
2971.68,0.0
2980.2,0.0
2988.72,0.0
2997.24,0.0
3005.76,0.0
3014.29,0.0
3022.81,0.0
3031.33,0.0
3039.85,0.0
3048.37,0.0
3056.89,0.0
3065.41,0.0
3073.93,0.0
3082.46,0.0
3090.98,0.0
3099.5,0.0
3108.02,0.0
3116.54,0.0
3125.06,0.0
3133.58,0.0
3142.11,0.0
3150.63,0.0
3159.15,0.0
3167.67,0.0
3176.19,0.0
3184.71,0.0
3193.23,0.0
3201.75,0.0
3210.28,0.0
3218.8,0.0
3227.32,0.0
3235.84,0.0
3244.36,0.0
3252.88,0.0
3261.4,0.0
3269.92,0.0
3278.45,0.0
3286.97,0.0
3295.49,0.0
3304.01,0.0
3312.53,0.0
3321.05,0.0
3329.57,0.0
3338.1,0.0
3346.62,0.0
3355.14,0.0
3363.66,0.0
3372.18,0.0
3380.7,0.0
3389.22,0.0
3397.74,0.0
3406.27,0.0
3414.79,0.0
3423.31,0.0
3431.83,0.0
3440.35,0.0
3448.87,0.0
3457.39,0.0
3465.91,0.0
3474.44,0.0
3482.96,0.0
3491.48,0.0
3500.0,0.0