File: __exampleData/ML Plastics copy/top class a spectra/All Class A spectra/Class_A_X124_Y42_prob0.600.csv
# Class A Classified Spectrum
# Position: X=124, Y=42
# Classification Probability: 0.6000
# Data Type: processed
# Original Filename: Steno-CT-33_01_Y042_X124.txt
#
Wavenumber,Intensity
100.0,13.3308
108.521,65.9974
117.043,83.4817
125.564,46.8521
134.085,23.7569
142.607,23.1405
151.128,33.1022
159.649,32.1393
168.17,33.5179
176.692,41.9312
185.213,42.211
193.734,23.2774
202.256,14.9006
210.777,20.6468
219.298,17.4978
227.82,16.4979
236.341,14.5845
244.862,7.64825
253.383,3.18018
261.905,9.89898
270.426,16.5376
278.947,13.3108
287.469,7.38292
295.99,5.22643
304.511,4.59076
313.033,11.1513
321.554,14.3343
330.075,13.177
338.596,7.89128
347.118,9.58715
355.639,5.5462
364.16,3.45157
372.682,5.40962
381.203,5.23697
389.724,2.08669
398.246,9.59884
406.767,17.292
415.288,12.5217
423.81,5.5028
432.331,2.8953
440.852,-1.39219
449.373,-1.65147
457.895,3.03908
466.416,6.34629
474.937,1.93043
483.459,7.49689
491.98,11.1964
500.501,14.6077
509.023,7.84977
517.544,6.17804
526.065,3.49218
534.586,8.47162
543.108,4.45321
551.629,3.87636
560.15,4.37044
568.672,8.7352
577.193,15.7083
585.714,19.4753
594.236,15.9347
602.757,4.19479
611.278,6.21792
619.799,10.1326
628.321,10.1126
636.842,8.06054
645.363,7.1013
653.885,4.27541
662.406,-0.0413406
670.927,4.54951
679.449,10.4095
687.97,18.7443
696.491,19.1102
705.013,13.5507
713.534,6.18594
722.055,11.3992
730.576,16.8407
739.098,15.0586
747.619,3.87851
756.14,-4.4036
764.662,2.20701
773.183,15.518
781.704,18.9889
790.226,14.7582
798.747,14.5617
807.268,13.1935
815.789,15.8618
824.311,12.4872
832.832,9.51529
841.353,5.26059
849.875,6.13126
858.396,4.11979
866.917,0.653513
875.439,5.79035
883.96,4.47975
892.481,4.53956
901.003,10.2786
909.524,11.1218
918.045,2.50605
926.566,-3.10714
935.088,3.05182
943.609,6.7523
952.13,7.05917
960.652,10.4847
969.173,10.4841
977.694,5.69644
986.216,1.18021
994.737,7.76795
1003.26,19.7185
1011.78,44.3069
1020.3,62.1495
1028.82,50.5704
1037.34,18.8294
1045.86,6.88192
1054.39,6.99977
1062.91,9.52183
1071.43,8.05336
1079.95,6.59154
1088.47,2.47147
1096.99,9.56505
1105.51,10.6566
1114.04,6.01855
1122.56,6.42222
1131.08,12.7361
1139.6,14.8715
1148.12,12.3421
1156.64,11.4751
1165.16,6.62253
1173.68,4.31471
1182.21,2.36528
1190.73,5.3701
1199.25,11.9567
1207.77,16.1889
1216.29,17.616
1224.81,31.9433
1233.33,55.1813
1241.85,59.9346
1250.38,43.7849
1258.9,29.9997
1267.42,18.9694
1275.94,10.5772
1284.46,6.07594
1292.98,5.23798
1301.5,6.25561
1310.03,10.36
1318.55,11.3402
1327.07,6.66036
1335.59,4.96572
1344.11,9.43063
1352.63,8.52192
1361.15,6.11652
1369.67,4.45536
1378.2,10.0682
1386.72,13.5285
1395.24,17.8799
1403.76,12.183
1412.28,9.13271
1420.8,8.98481
1429.32,10.8919
1437.84,8.28288
1446.37,-1.02322
1454.89,-2.7116
1463.41,-0.224983
1471.93,8.66042
1480.45,9.29645
1488.97,15.6424
1497.49,17.8769
1506.02,18.3076
1514.54,9.06957
1523.06,5.02224
1531.58,-0.636663
1540.1,10.6869
1548.62,15.4071
1557.14,11.8056
1565.66,5.25436
1574.19,7.22464
1582.71,9.7374
1591.23,8.11971
1599.75,10.3281
1608.27,6.97659
1616.79,9.77404
1625.31,16.2638
1633.83,16.3971
1642.36,6.54911
1650.88,2.28719
1659.4,5.12882
1667.92,3.03907
1676.44,3.60257
1684.96,6.71676
1693.48,9.36383
1702.01,12.1233
1710.53,12.6412
1719.05,12.4009
1727.57,8.47483
1736.09,7.70268
1744.61,11.1828
1753.13,13.3185
1761.65,9.8302
1770.18,4.68146
1778.7,12.503
1787.22,11.4032
1795.74,7.89457
1804.26,9.27018
1812.78,12.1232
1821.3,5.65373
1829.82,1.69987
1838.35,5.66632
1846.87,13.5013
1855.39,21.0585
1863.91,22.6735
1872.43,16.3354
1880.95,11.2202
1889.47,12.1265
1897.99,8.75585
1906.52,13.1877
1915.04,8.4947
1923.56,9.85386
1932.08,4.19988
1940.6,3.364
1949.12,0.670292
1957.64,5.66555
1966.17,8.73138
1974.69,8.09117
1983.21,11.504
1991.73,9.68427
2000.25,2.99667
2008.77,-1.02252
2017.29,0.0
2025.81,0.0
2034.34,0.0
2042.86,0.0
2051.38,0.0
2059.9,0.0
2068.42,0.0
2076.94,0.0
2085.46,0.0
2093.98,0.0
2102.51,0.0
2111.03,0.0
2119.55,0.0
2128.07,0.0
2136.59,0.0
2145.11,0.0
2153.63,0.0
2162.16,0.0
2170.68,0.0
2179.2,0.0
2187.72,0.0
2196.24,0.0
2204.76,0.0
2213.28,0.0
2221.8,0.0
2230.33,0.0
2238.85,0.0
2247.37,0.0
2255.89,0.0
2264.41,0.0
2272.93,0.0
2281.45,0.0
2289.97,0.0
2298.5,0.0
2307.02,0.0
2315.54,0.0
2324.06,0.0
2332.58,0.0
2341.1,0.0
2349.62,0.0
2358.15,0.0
2366.67,0.0
2375.19,0.0
2383.71,0.0
2392.23,0.0
2400.75,0.0
2409.27,0.0
2417.79,0.0
2426.32,0.0
2434.84,0.0
2443.36,0.0
2451.88,0.0
2460.4,0.0
2468.92,0.0
2477.44,0.0
2485.96,0.0
2494.49,0.0
2503.01,0.0
2511.53,0.0
2520.05,0.0
2528.57,0.0
2537.09,0.0
2545.61,0.0
2554.14,0.0
2562.66,0.0
2571.18,0.0
2579.7,0.0
2588.22,0.0
2596.74,0.0
2605.26,0.0
2613.78,0.0
2622.31,0.0
2630.83,0.0
2639.35,0.0
2647.87,0.0
2656.39,0.0
2664.91,0.0
2673.43,0.0
2681.95,0.0
2690.48,0.0
2699,0.0
2707.52,0.0
2716.04,0.0
2724.56,0.0
2733.08,0.0
2741.6,0.0
2750.13,0.0
2758.65,0.0
2767.17,0.0
2775.69,0.0
2784.21,0.0
2792.73,0.0
2801.25,0.0
2809.77,0.0
2818.3,0.0
2826.82,0.0
2835.34,0.0
2843.86,0.0
2852.38,0.0
2860.9,0.0
2869.42,0.0
2877.94,0.0
2886.47,0.0
2894.99,0.0
2903.51,0.0
2912.03,0.0
2920.55,0.0
2929.07,0.0
2937.59,0.0
2946.12,0.0
2954.64,0.0
2963.16,0.0
2971.68,0.0
2980.2,0.0
2988.72,0.0
2997.24,0.0
3005.76,0.0
3014.29,0.0
3022.81,0.0
3031.33,0.0
3039.85,0.0
3048.37,0.0
3056.89,0.0
3065.41,0.0
3073.93,0.0
3082.46,0.0
3090.98,0.0
3099.5,0.0
3108.02,0.0
3116.54,0.0
3125.06,0.0
3133.58,0.0
3142.11,0.0
3150.63,0.0
3159.15,0.0
3167.67,0.0
3176.19,0.0
3184.71,0.0
3193.23,0.0
3201.75,0.0
3210.28,0.0
3218.8,0.0
3227.32,0.0
3235.84,0.0
3244.36,0.0
3252.88,0.0
3261.4,0.0
3269.92,0.0
3278.45,0.0
3286.97,0.0
3295.49,0.0
3304.01,0.0
3312.53,0.0
3321.05,0.0
3329.57,0.0
3338.1,0.0
3346.62,0.0
3355.14,0.0
3363.66,0.0
3372.18,0.0
3380.7,0.0
3389.22,0.0
3397.74,0.0
3406.27,0.0
3414.79,0.0
3423.31,0.0
3431.83,0.0
3440.35,0.0
3448.87,0.0
3457.39,0.0
3465.91,0.0
3474.44,0.0
3482.96,0.0
3491.48,0.0
3500.0,0.0