File: __exampleData/ML Plastics copy/top class a spectra/All Class A spectra/Class_A_X127_Y49_prob0.510.csv
# Class A Classified Spectrum
# Position: X=127, Y=49
# Classification Probability: 0.5100
# Data Type: processed
# Original Filename: Steno-CT-33_01_Y049_X127.txt
#
Wavenumber,Intensity
100.0,31.1872
108.521,128.264
117.043,154.575
125.564,66.1897
134.085,27.9391
142.607,21.4305
151.128,21.8621
159.649,36.3161
168.17,53.3106
176.692,50.4726
185.213,28.5189
193.734,12.8638
202.256,11.1822
210.777,9.80077
219.298,7.35147
227.82,-0.293868
236.341,-0.336633
244.862,2.00364
253.383,6.18289
261.905,5.38229
270.426,8.00589
278.947,9.0485
287.469,8.34356
295.99,2.4007
304.511,2.66896
313.033,6.46543
321.554,6.15076
330.075,1.98667
338.596,-2.1609
347.118,4.68206
355.639,9.38924
364.16,6.82369
372.682,0.803797
381.203,6.52935
389.724,9.19868
398.246,8.2688
406.767,7.13729
415.288,10.6363
423.81,11.6797
432.331,7.34897
440.852,7.7059
449.373,10.7477
457.895,12.5054
466.416,9.8058
474.937,15.0798
483.459,14.5653
491.98,8.06157
500.501,-3.55726
509.023,-1.45573
517.544,2.74944
526.065,9.24345
534.586,5.5602
543.108,2.57827
551.629,5.47982
560.15,13.3781
568.672,15.0754
577.193,8.12359
585.714,7.41145
594.236,6.80372
602.757,12.7514
611.278,11.3537
619.799,6.97737
628.321,-1.34922
636.842,9.13615
645.363,19.0383
653.885,19.7124
662.406,15.0445
670.927,11.2327
679.449,21.7856
687.97,29.4344
696.491,24.7402
705.013,15.5445
713.534,14.8194
722.055,8.49531
730.576,3.78587
739.098,8.98578
747.619,8.2413
756.14,10.7521
764.662,14.8401
773.183,11.4932
781.704,4.67089
790.226,9.97721
798.747,17.4623
807.268,18.4068
815.789,22.0282
824.311,18.1656
832.832,12.7969
841.353,8.96207
849.875,15.0933
858.396,14.5217
866.917,21.6009
875.439,18.2707
883.96,18.1923
892.481,12.3075
901.003,17.2636
909.524,16.1678
918.045,19.2487
926.566,15.4948
935.088,11.9889
943.609,9.69707
952.13,12.2192
960.652,10.8861
969.173,10.647
977.694,12.0665
986.216,13.0893
994.737,13.3899
1003.26,17.7874
1011.78,68.4411
1020.3,92.6139
1028.82,72.8908
1037.34,25.958
1045.86,14.5341
1054.39,19.4952
1062.91,16.2805
1071.43,11.3951
1079.95,0.24719
1088.47,5.19559
1096.99,9.20647
1105.51,14.6105
1114.04,18.784
1122.56,17.9226
1131.08,13.3813
1139.6,10.7378
1148.12,5.98537
1156.64,2.42692
1165.16,2.32474
1173.68,12.3254
1182.21,14.6739
1190.73,13.1491
1199.25,7.68154
1207.77,4.4704
1216.29,12.9705
1224.81,29.1528
1233.33,46.3353
1241.85,47.4443
1250.38,37.5245
1258.9,18.5594
1267.42,7.2612
1275.94,4.37311
1284.46,11.6414
1292.98,13.634
1301.5,10.1895
1310.03,3.3844
1318.55,1.78965
1327.07,5.89469
1335.59,3.44241
1344.11,5.93552
1352.63,3.81524
1361.15,7.1821
1369.67,0.489974
1378.2,5.80596
1386.72,12.6659
1395.24,16.8489
1403.76,16.8999
1412.28,19.0766
1420.8,14.1912
1429.32,7.77685
1437.84,7.8585
1446.37,14.3147
1454.89,15.6473
1463.41,12.1566
1471.93,4.67664
1480.45,9.02294
1488.97,11.155
1497.49,10.8725
1506.02,7.26582
1514.54,12.932
1523.06,9.71391
1531.58,6.22673
1540.1,5.83644
1548.62,10.8901
1557.14,15.1938
1565.66,12.5892
1574.19,15.7555
1582.71,12.7529
1591.23,8.55968
1599.75,0.849428
1608.27,2.50496
1616.79,6.28353
1625.31,5.19002
1633.83,5.63183
1642.36,6.56604
1650.88,8.83611
1659.4,6.4825
1667.92,8.05315
1676.44,7.511
1684.96,10.5993
1693.48,12.74
1702.01,13.0558
1710.53,5.2662
1719.05,5.34113
1727.57,8.10446
1736.09,9.40919
1744.61,6.32727
1753.13,7.87115
1761.65,7.57218
1770.18,6.92522
1778.7,10.0195
1787.22,14.6285
1795.74,11.7396
1804.26,7.71433
1812.78,9.88496
1821.3,10.4585
1829.82,6.16094
1838.35,3.98805
1846.87,7.21236
1855.39,8.98867
1863.91,6.25586
1872.43,7.18965
1880.95,8.88341
1889.47,11.053
1897.99,11.0997
1906.52,10.7433
1915.04,18.7034
1923.56,23.5033
1932.08,28.8491
1940.6,24.827
1949.12,25.1458
1957.64,19.8732
1966.17,20.4993
1974.69,23.7302
1983.21,23.3332
1991.73,14.0381
2000.25,2.6806
2008.77,-1.22951
2017.29,0.0
2025.81,0.0
2034.34,0.0
2042.86,0.0
2051.38,0.0
2059.9,0.0
2068.42,0.0
2076.94,0.0
2085.46,0.0
2093.98,0.0
2102.51,0.0
2111.03,0.0
2119.55,0.0
2128.07,0.0
2136.59,0.0
2145.11,0.0
2153.63,0.0
2162.16,0.0
2170.68,0.0
2179.2,0.0
2187.72,0.0
2196.24,0.0
2204.76,0.0
2213.28,0.0
2221.8,0.0
2230.33,0.0
2238.85,0.0
2247.37,0.0
2255.89,0.0
2264.41,0.0
2272.93,0.0
2281.45,0.0
2289.97,0.0
2298.5,0.0
2307.02,0.0
2315.54,0.0
2324.06,0.0
2332.58,0.0
2341.1,0.0
2349.62,0.0
2358.15,0.0
2366.67,0.0
2375.19,0.0
2383.71,0.0
2392.23,0.0
2400.75,0.0
2409.27,0.0
2417.79,0.0
2426.32,0.0
2434.84,0.0
2443.36,0.0
2451.88,0.0
2460.4,0.0
2468.92,0.0
2477.44,0.0
2485.96,0.0
2494.49,0.0
2503.01,0.0
2511.53,0.0
2520.05,0.0
2528.57,0.0
2537.09,0.0
2545.61,0.0
2554.14,0.0
2562.66,0.0
2571.18,0.0
2579.7,0.0
2588.22,0.0
2596.74,0.0
2605.26,0.0
2613.78,0.0
2622.31,0.0
2630.83,0.0
2639.35,0.0
2647.87,0.0
2656.39,0.0
2664.91,0.0
2673.43,0.0
2681.95,0.0
2690.48,0.0
2699,0.0
2707.52,0.0
2716.04,0.0
2724.56,0.0
2733.08,0.0
2741.6,0.0
2750.13,0.0
2758.65,0.0
2767.17,0.0
2775.69,0.0
2784.21,0.0
2792.73,0.0
2801.25,0.0
2809.77,0.0
2818.3,0.0
2826.82,0.0
2835.34,0.0
2843.86,0.0
2852.38,0.0
2860.9,0.0
2869.42,0.0
2877.94,0.0
2886.47,0.0
2894.99,0.0
2903.51,0.0
2912.03,0.0
2920.55,0.0
2929.07,0.0
2937.59,0.0
2946.12,0.0
2954.64,0.0
2963.16,0.0
2971.68,0.0
2980.2,0.0
2988.72,0.0
2997.24,0.0
3005.76,0.0
3014.29,0.0
3022.81,0.0
3031.33,0.0
3039.85,0.0
3048.37,0.0
3056.89,0.0
3065.41,0.0
3073.93,0.0
3082.46,0.0
3090.98,0.0
3099.5,0.0
3108.02,0.0
3116.54,0.0
3125.06,0.0
3133.58,0.0
3142.11,0.0
3150.63,0.0
3159.15,0.0
3167.67,0.0
3176.19,0.0
3184.71,0.0
3193.23,0.0
3201.75,0.0
3210.28,0.0
3218.8,0.0
3227.32,0.0
3235.84,0.0
3244.36,0.0
3252.88,0.0
3261.4,0.0
3269.92,0.0
3278.45,0.0
3286.97,0.0
3295.49,0.0
3304.01,0.0
3312.53,0.0
3321.05,0.0
3329.57,0.0
3338.1,0.0
3346.62,0.0
3355.14,0.0
3363.66,0.0
3372.18,0.0
3380.7,0.0
3389.22,0.0
3397.74,0.0
3406.27,0.0
3414.79,0.0
3423.31,0.0
3431.83,0.0
3440.35,0.0
3448.87,0.0
3457.39,0.0
3465.91,0.0
3474.44,0.0
3482.96,0.0
3491.48,0.0
3500.0,0.0