File: __exampleData/ML Plastics copy/top class a spectra/All Class A spectra/Class_A_X257_Y23_prob0.880.csv
# Class A Classified Spectrum
# Position: X=257, Y=23
# Classification Probability: 0.8800
# Data Type: processed
# Original Filename: Steno-CT-33_01_Y023_X257.txt
#
Wavenumber,Intensity
100.0,3.19294
108.521,9.63262
117.043,12.3034
125.564,7.25288
134.085,8.48972
142.607,14.9825
151.128,18.6002
159.649,15.2489
168.17,13.3219
176.692,11.9279
185.213,10.3966
193.734,2.62274
202.256,-0.886942
210.777,0.598931
219.298,7.22897
227.82,7.52085
236.341,2.94713
244.862,1.55807
253.383,9.97758
261.905,16.9727
270.426,13.1623
278.947,7.46111
287.469,9.95451
295.99,12.0734
304.511,10.9444
313.033,9.4401
321.554,10.0985
330.075,12.1991
338.596,18.5841
347.118,15.6628
355.639,4.44116
364.16,0.99576
372.682,6.58938
381.203,10.6858
389.724,8.56538
398.246,5.00608
406.767,6.49208
415.288,7.58682
423.81,4.33099
432.331,5.73942
440.852,12.3354
449.373,13.3426
457.895,10.533
466.416,10.646
474.937,9.40596
483.459,6.36099
491.98,7.67961
500.501,10.32
509.023,8.74816
517.544,9.76464
526.065,13.8399
534.586,14.5227
543.108,8.92693
551.629,12.8927
560.15,19.7713
568.672,20.0751
577.193,9.36126
585.714,3.91558
594.236,3.68329
602.757,4.39459
611.278,4.15233
619.799,4.01646
628.321,3.25286
636.842,0.749659
645.363,6.174
653.885,6.27153
662.406,2.48929
670.927,4.66703
679.449,10.2251
687.97,9.67663
696.491,12.2839
705.013,15.5255
713.534,11.9361
722.055,10.4831
730.576,10.9941
739.098,10.9067
747.619,13.4367
756.14,18.187
764.662,14.3839
773.183,8.91509
781.704,5.89081
790.226,4.4023
798.747,4.05915
807.268,7.44021
815.789,10.5688
824.311,16.6599
832.832,16.8398
841.353,-72.0521
849.875,265.411
858.396,902.353
866.917,926.145
875.439,322.475
883.96,-82.3416
892.481,11.7496
901.003,17.7235
909.524,15.6972
918.045,10.9675
926.566,7.41152
935.088,6.55065
943.609,5.61191
952.13,9.89131
960.652,9.60354
969.173,9.59665
977.694,6.14028
986.216,7.54745
994.737,3.4366
1003.26,6.00832
1011.78,11.2627
1020.3,15.2307
1028.82,15.0298
1037.34,7.38896
1045.86,3.01637
1054.39,6.17848
1062.91,12.6706
1071.43,7.07762
1079.95,4.657
1088.47,4.41165
1096.99,5.85842
1105.51,4.16405
1114.04,5.9165
1122.56,9.52542
1131.08,12.914
1139.6,12.4332
1148.12,11.3252
1156.64,13.5084
1165.16,16.0728
1173.68,11.4955
1182.21,5.38362
1190.73,5.376
1199.25,11.6607
1207.77,13.7179
1216.29,10.702
1224.81,12.5132
1233.33,10.0646
1241.85,9.24279
1250.38,6.65316
1258.9,13.0509
1267.42,8.71079
1275.94,2.14684
1284.46,2.18936
1292.98,8.56648
1301.5,11.1118
1310.03,5.51529
1318.55,2.23875
1327.07,3.54389
1335.59,6.54919
1344.11,14.671
1352.63,13.4974
1361.15,13.9181
1369.67,14.0541
1378.2,14.1126
1386.72,7.10566
1395.24,8.21012
1403.76,14.202
1412.28,14.6213
1420.8,11.3696
1429.32,12.7213
1437.84,8.92442
1446.37,6.19583
1454.89,3.19832
1463.41,9.7079
1471.93,6.30354
1480.45,5.11789
1488.97,4.89981
1497.49,10.6029
1506.02,5.48103
1514.54,2.69249
1523.06,1.18466
1531.58,3.27242
1540.1,10.3675
1548.62,15.3827
1557.14,10.6488
1565.66,4.99524
1574.19,8.17221
1582.71,6.66207
1591.23,6.71204
1599.75,5.80664
1608.27,9.57658
1616.79,7.16728
1625.31,5.21121
1633.83,4.99836
1642.36,9.44574
1650.88,9.39597
1659.4,3.53894
1667.92,2.31647
1676.44,5.6454
1684.96,12.7975
1693.48,12.6385
1702.01,9.35139
1710.53,8.53725
1719.05,14.8249
1727.57,9.85976
1736.09,8.04246
1744.61,5.89293
1753.13,7.17931
1761.65,6.04401
1770.18,6.21308
1778.7,8.37462
1787.22,10.9708
1795.74,16.7041
1804.26,9.26462
1812.78,5.92087
1821.3,7.12072
1829.82,10.037
1838.35,9.09128
1846.87,7.46595
1855.39,7.47095
1863.91,10.8971
1872.43,14.1418
1880.95,14.4925
1889.47,10.4817
1897.99,7.01752
1906.52,9.34944
1915.04,10.524
1923.56,11.4641
1932.08,11.9212
1940.6,14.2872
1949.12,8.74054
1957.64,1.15326
1966.17,1.82447
1974.69,3.18635
1983.21,3.15882
1991.73,0.392305
2000.25,0.111717
2008.77,-0.0628289
2017.29,0.0
2025.81,0.0
2034.34,0.0
2042.86,0.0
2051.38,0.0
2059.9,0.0
2068.42,0.0
2076.94,0.0
2085.46,0.0
2093.98,0.0
2102.51,0.0
2111.03,0.0
2119.55,0.0
2128.07,0.0
2136.59,0.0
2145.11,0.0
2153.63,0.0
2162.16,0.0
2170.68,0.0
2179.2,0.0
2187.72,0.0
2196.24,0.0
2204.76,0.0
2213.28,0.0
2221.8,0.0
2230.33,0.0
2238.85,0.0
2247.37,0.0
2255.89,0.0
2264.41,0.0
2272.93,0.0
2281.45,0.0
2289.97,0.0
2298.5,0.0
2307.02,0.0
2315.54,0.0
2324.06,0.0
2332.58,0.0
2341.1,0.0
2349.62,0.0
2358.15,0.0
2366.67,0.0
2375.19,0.0
2383.71,0.0
2392.23,0.0
2400.75,0.0
2409.27,0.0
2417.79,0.0
2426.32,0.0
2434.84,0.0
2443.36,0.0
2451.88,0.0
2460.4,0.0
2468.92,0.0
2477.44,0.0
2485.96,0.0
2494.49,0.0
2503.01,0.0
2511.53,0.0
2520.05,0.0
2528.57,0.0
2537.09,0.0
2545.61,0.0
2554.14,0.0
2562.66,0.0
2571.18,0.0
2579.7,0.0
2588.22,0.0
2596.74,0.0
2605.26,0.0
2613.78,0.0
2622.31,0.0
2630.83,0.0
2639.35,0.0
2647.87,0.0
2656.39,0.0
2664.91,0.0
2673.43,0.0
2681.95,0.0
2690.48,0.0
2699,0.0
2707.52,0.0
2716.04,0.0
2724.56,0.0
2733.08,0.0
2741.6,0.0
2750.13,0.0
2758.65,0.0
2767.17,0.0
2775.69,0.0
2784.21,0.0
2792.73,0.0
2801.25,0.0
2809.77,0.0
2818.3,0.0
2826.82,0.0
2835.34,0.0
2843.86,0.0
2852.38,0.0
2860.9,0.0
2869.42,0.0
2877.94,0.0
2886.47,0.0
2894.99,0.0
2903.51,0.0
2912.03,0.0
2920.55,0.0
2929.07,0.0
2937.59,0.0
2946.12,0.0
2954.64,0.0
2963.16,0.0
2971.68,0.0
2980.2,0.0
2988.72,0.0
2997.24,0.0
3005.76,0.0
3014.29,0.0
3022.81,0.0
3031.33,0.0
3039.85,0.0
3048.37,0.0
3056.89,0.0
3065.41,0.0
3073.93,0.0
3082.46,0.0
3090.98,0.0
3099.5,0.0
3108.02,0.0
3116.54,0.0
3125.06,0.0
3133.58,0.0
3142.11,0.0
3150.63,0.0
3159.15,0.0
3167.67,0.0
3176.19,0.0
3184.71,0.0
3193.23,0.0
3201.75,0.0
3210.28,0.0
3218.8,0.0
3227.32,0.0
3235.84,0.0
3244.36,0.0
3252.88,0.0
3261.4,0.0
3269.92,0.0
3278.45,0.0
3286.97,0.0
3295.49,0.0
3304.01,0.0
3312.53,0.0
3321.05,0.0
3329.57,0.0
3338.1,0.0
3346.62,0.0
3355.14,0.0
3363.66,0.0
3372.18,0.0
3380.7,0.0
3389.22,0.0
3397.74,0.0
3406.27,0.0
3414.79,0.0
3423.31,0.0
3431.83,0.0
3440.35,0.0
3448.87,0.0
3457.39,0.0
3465.91,0.0
3474.44,0.0
3482.96,0.0
3491.48,0.0
3500.0,0.0