File: __exampleData/ML Plastics copy/top class a spectra/Class_A_Top_04_X116_Y32_prob0.650.txt
# Class A Spectrum - Top: 4
# Position: X=116, Y=32
# Classification Probability: 0.6500
# Data Type: processed
# Original Filename: Steno-CT-33_01_Y032_X116.txt
#
Wavenumber Intensity
100.0 1.12198
108.521 11.5508
117.043 15.9493
125.564 11.9449
134.085 10.8084
142.607 9.56422
151.128 13.9341
159.649 8.48152
168.17 10.6899
176.692 11.065
185.213 9.67545
193.734 3.18239
202.256 5.75861
210.777 3.10862
219.298 4.20402
227.82 2.4544
236.341 2.4966
244.862 -2.44347
253.383 2.91378
261.905 6.59751
270.426 10.8459
278.947 10.3294
287.469 15.9332
295.99 18.7994
304.511 13.8691
313.033 3.6074
321.554 -0.71506
330.075 4.70198
338.596 11.4395
347.118 8.33558
355.639 5.55661
364.16 11.6544
372.682 14.9459
381.203 10.6039
389.724 5.77815
398.246 9.90888
406.767 6.98785
415.288 4.59081
423.81 5.91868
432.331 5.20624
440.852 7.59281
449.373 6.18329
457.895 6.86367
466.416 2.53746
474.937 7.23126
483.459 6.97637
491.98 10.3611
500.501 12.4408
509.023 9.42331
517.544 6.79693
526.065 10.5456
534.586 8.5382
543.108 3.00325
551.629 2.31249
560.15 3.73519
568.672 4.41447
577.193 9.76673
585.714 8.52232
594.236 3.32032
602.757 0.822886
611.278 7.36202
619.799 7.20358
628.321 1.78773
636.842 1.5134
645.363 1.14999
653.885 6.55322
662.406 4.36581
670.927 8.75691
679.449 4.93838
687.97 13.4988
696.491 13.9919
705.013 6.84881
713.534 1.29027
722.055 11.6589
730.576 16.4841
739.098 7.03727
747.619 7.25627
756.14 9.55565
764.662 5.98985
773.183 -1.11803
781.704 8.74392
790.226 12.849
798.747 14.9838
807.268 11.9094
815.789 17.5284
824.311 15.453
832.832 17.0761
841.353 17.4049
849.875 15.5028
858.396 10.1217
866.917 15.6232
875.439 21.2676
883.96 14.4434
892.481 11.914
901.003 17.2915
909.524 19.3248
918.045 8.88378
926.566 8.4613
935.088 10.1208
943.609 12.4597
952.13 15.7706
960.652 18.1372
969.173 17.3508
977.694 11.8423
986.216 9.27455
994.737 7.43093
1003.26 7.47912
1011.78 9.09443
1020.3 6.96955
1028.82 9.06254
1037.34 9.1841
1045.86 13.5705
1054.39 18.0511
1062.91 14.6659
1071.43 7.12485
1079.95 0.398429
1088.47 6.81277
1096.99 13.3565
1105.51 8.65304
1114.04 5.5332
1122.56 11.294
1131.08 16.9153
1139.6 8.54633
1148.12 4.04246
1156.64 5.45883
1165.16 5.24523
1173.68 6.08965
1182.21 8.49752
1190.73 12.1801
1199.25 7.96752
1207.77 1.19801
1216.29 2.76217
1224.81 8.2175
1233.33 9.4526
1241.85 4.91637
1250.38 11.735
1258.9 15.4907
1267.42 13.5324
1275.94 7.42437
1284.46 12.3272
1292.98 10.9549
1301.5 7.1446
1310.03 4.3089
1318.55 10.4514
1327.07 10.8104
1335.59 7.16579
1344.11 5.22387
1352.63 10.2119
1361.15 15.1172
1369.67 15.6452
1378.2 16.5456
1386.72 11.5159
1395.24 4.59764
1403.76 0.961794
1412.28 7.6035
1420.8 12.4494
1429.32 13.5728
1437.84 12.6591
1446.37 13.2044
1454.89 13.7199
1463.41 11.6899
1471.93 9.67577
1480.45 -118.582
1488.97 287.616
1497.49 1444.88
1506.02 2482.59
1514.54 2075.93
1523.06 860.251
1531.58 61.5964
1540.1 -51.4383
1548.62 5.74418
1557.14 14.3194
1565.66 21.3866
1574.19 14.1637
1582.71 8.28337
1591.23 9.79181
1599.75 4.93714
1608.27 2.42346
1616.79 4.24154
1625.31 11.9805
1633.83 15.6113
1642.36 14.0119
1650.88 10.5423
1659.4 8.81495
1667.92 12.8972
1676.44 10.6646
1684.96 13.5759
1693.48 10.4813
1702.01 11.2222
1710.53 8.46712
1719.05 7.46487
1727.57 5.27317
1736.09 10.4079
1744.61 14.2081
1753.13 2.56528
1761.65 3.4144
1770.18 9.32411
1778.7 17.0375
1787.22 11.6358
1795.74 6.29297
1804.26 2.6548
1812.78 4.99708
1821.3 13.8286
1829.82 15.9689
1838.35 15.6569
1846.87 15.5963
1855.39 13.8224
1863.91 13.8976
1872.43 9.02545
1880.95 9.74329
1889.47 10.0362
1897.99 13.339
1906.52 6.2545
1915.04 4.01561
1923.56 3.65803
1932.08 9.51721
1940.6 7.67381
1949.12 6.93514
1957.64 9.07942
1966.17 11.891
1974.69 10.9889
1983.21 9.78104
1991.73 8.01845
2000.25 2.91354
2008.77 -0.93843
2017.29 0.0
2025.81 0.0
2034.34 0.0
2042.86 0.0
2051.38 0.0
2059.9 0.0
2068.42 0.0
2076.94 0.0
2085.46 0.0
2093.98 0.0
2102.51 0.0
2111.03 0.0
2119.55 0.0
2128.07 0.0
2136.59 0.0
2145.11 0.0
2153.63 0.0
2162.16 0.0
2170.68 0.0
2179.2 0.0
2187.72 0.0
2196.24 0.0
2204.76 0.0
2213.28 0.0
2221.8 0.0
2230.33 0.0
2238.85 0.0
2247.37 0.0
2255.89 0.0
2264.41 0.0
2272.93 0.0
2281.45 0.0
2289.97 0.0
2298.5 0.0
2307.02 0.0
2315.54 0.0
2324.06 0.0
2332.58 0.0
2341.1 0.0
2349.62 0.0
2358.15 0.0
2366.67 0.0
2375.19 0.0
2383.71 0.0
2392.23 0.0
2400.75 0.0
2409.27 0.0
2417.79 0.0
2426.32 0.0
2434.84 0.0
2443.36 0.0
2451.88 0.0
2460.4 0.0
2468.92 0.0
2477.44 0.0
2485.96 0.0
2494.49 0.0
2503.01 0.0
2511.53 0.0
2520.05 0.0
2528.57 0.0
2537.09 0.0
2545.61 0.0
2554.14 0.0
2562.66 0.0
2571.18 0.0
2579.7 0.0
2588.22 0.0
2596.74 0.0
2605.26 0.0
2613.78 0.0
2622.31 0.0
2630.83 0.0
2639.35 0.0
2647.87 0.0
2656.39 0.0
2664.91 0.0
2673.43 0.0
2681.95 0.0
2690.48 0.0
2699 0.0
2707.52 0.0
2716.04 0.0
2724.56 0.0
2733.08 0.0
2741.6 0.0
2750.13 0.0
2758.65 0.0
2767.17 0.0
2775.69 0.0
2784.21 0.0
2792.73 0.0
2801.25 0.0
2809.77 0.0
2818.3 0.0
2826.82 0.0
2835.34 0.0
2843.86 0.0
2852.38 0.0
2860.9 0.0
2869.42 0.0
2877.94 0.0
2886.47 0.0
2894.99 0.0
2903.51 0.0
2912.03 0.0
2920.55 0.0
2929.07 0.0
2937.59 0.0
2946.12 0.0
2954.64 0.0
2963.16 0.0
2971.68 0.0
2980.2 0.0
2988.72 0.0
2997.24 0.0
3005.76 0.0
3014.29 0.0
3022.81 0.0
3031.33 0.0
3039.85 0.0
3048.37 0.0
3056.89 0.0
3065.41 0.0
3073.93 0.0
3082.46 0.0
3090.98 0.0
3099.5 0.0
3108.02 0.0
3116.54 0.0
3125.06 0.0
3133.58 0.0
3142.11 0.0
3150.63 0.0
3159.15 0.0
3167.67 0.0
3176.19 0.0
3184.71 0.0
3193.23 0.0
3201.75 0.0
3210.28 0.0
3218.8 0.0
3227.32 0.0
3235.84 0.0
3244.36 0.0
3252.88 0.0
3261.4 0.0
3269.92 0.0
3278.45 0.0
3286.97 0.0
3295.49 0.0
3304.01 0.0
3312.53 0.0
3321.05 0.0
3329.57 0.0
3338.1 0.0
3346.62 0.0
3355.14 0.0
3363.66 0.0
3372.18 0.0
3380.7 0.0
3389.22 0.0
3397.74 0.0
3406.27 0.0
3414.79 0.0
3423.31 0.0
3431.83 0.0
3440.35 0.0
3448.87 0.0
3457.39 0.0
3465.91 0.0
3474.44 0.0
3482.96 0.0
3491.48 0.0
3500.0 0.0