File: __exampleData/ML Plastics copy/top class a spectra/Class_A_Top_07_X123_Y46_prob0.570.csv
# Class A Spectrum - Top 7
# Position: X=123, Y=46
# Classification Probability: 0.5700
# Data Type: processed
# Original Filename: Steno-CT-33_01_Y046_X123.txt
#
Wavenumber,Intensity
100.0,11.7911
108.521,34.2378
117.043,42.1494
125.564,23.0847
134.085,17.7513
142.607,15.3626
151.128,9.17618
159.649,15.8581
168.17,33.5046
176.692,33.3312
185.213,21.179
193.734,6.98874
202.256,5.22716
210.777,2.93053
219.298,3.29587
227.82,5.68735
236.341,3.74785
244.862,4.12309
253.383,0.367206
261.905,7.27074
270.426,13.7315
278.947,12.9357
287.469,2.51698
295.99,7.79864
304.511,16.9894
313.033,18.622
321.554,8.26259
330.075,0.495299
338.596,1.23408
347.118,5.2743
355.639,6.34056
364.16,7.38975
372.682,7.72705
381.203,3.36873
389.724,3.30952
398.246,7.8767
406.767,1.7658
415.288,-3.59862
423.81,-3.56418
432.331,2.40789
440.852,5.2756
449.373,4.42005
457.895,1.3157
466.416,1.41185
474.937,16.9677
483.459,18.6622
491.98,12.1305
500.501,7.04643
509.023,11.6723
517.544,14.4806
526.065,11.9536
534.586,10.0631
543.108,-1.43064
551.629,-2.55544
560.15,4.01545
568.672,8.29774
577.193,10.3005
585.714,5.09685
594.236,6.20326
602.757,4.92885
611.278,14.7055
619.799,9.68954
628.321,9.4046
636.842,19.466
645.363,27.9218
653.885,19.4553
662.406,9.43019
670.927,9.99511
679.449,23.5717
687.97,40.2281
696.491,40.3609
705.013,22.2533
713.534,12.8204
722.055,12.9442
730.576,10.711
739.098,9.33567
747.619,14.2458
756.14,17.3238
764.662,20.4881
773.183,14.2528
781.704,11.8351
790.226,10.606
798.747,12.7872
807.268,13.7823
815.789,17.5842
824.311,23.6846
832.832,24.62
841.353,27.2192
849.875,23.864
858.396,18.8351
866.917,9.47482
875.439,10.309
883.96,15.7252
892.481,19.6915
901.003,15.925
909.524,10.1279
918.045,4.00513
926.566,0.518147
935.088,4.25186
943.609,9.31771
952.13,10.3777
960.652,6.42404
969.173,3.10653
977.694,10.2975
986.216,19.0094
994.737,28.3571
1003.26,29.2405
1011.78,54.5741
1020.3,67.3752
1028.82,55.5294
1037.34,26.1461
1045.86,23.046
1054.39,27.1821
1062.91,19.5971
1071.43,15.28
1079.95,17.2004
1088.47,23.5161
1096.99,13.9304
1105.51,11.0802
1114.04,9.01739
1122.56,12.4046
1131.08,9.704
1139.6,8.79005
1148.12,3.9219
1156.64,4.25885
1165.16,1.96384
1173.68,3.50227
1182.21,12.9435
1190.73,22.8591
1199.25,26.3071
1207.77,23.4745
1216.29,20.4076
1224.81,29.1165
1233.33,52.0663
1241.85,55.5882
1250.38,42.7754
1258.9,31.3818
1267.42,20.615
1275.94,11.4307
1284.46,6.76142
1292.98,5.55455
1301.5,3.20699
1310.03,6.94778
1318.55,11.1972
1327.07,8.308
1335.59,9.76915
1344.11,8.63258
1352.63,8.36223
1361.15,10.1531
1369.67,12.6138
1378.2,15.8499
1386.72,13.7358
1395.24,15.1126
1403.76,10.6009
1412.28,11.9293
1420.8,10.4268
1429.32,8.90128
1437.84,5.60052
1446.37,5.70153
1454.89,5.66105
1463.41,1.54204
1471.93,4.27834
1480.45,5.62449
1488.97,9.00761
1497.49,3.35664
1506.02,4.80163
1514.54,7.43441
1523.06,13.2277
1531.58,7.95147
1540.1,4.78112
1548.62,1.90858
1557.14,0.531311
1565.66,-3.23372
1574.19,2.11538
1582.71,6.83107
1591.23,6.72314
1599.75,9.14126
1608.27,10.92
1616.79,8.82742
1625.31,7.95326
1633.83,9.73376
1642.36,14.1347
1650.88,8.97365
1659.4,7.54744
1667.92,6.03473
1676.44,8.26809
1684.96,12.5769
1693.48,11.4687
1702.01,4.64867
1710.53,-1.31851
1719.05,1.81807
1727.57,7.94077
1736.09,8.96901
1744.61,11.3403
1753.13,10.9209
1761.65,10.7273
1770.18,8.28807
1778.7,8.66615
1787.22,13.5617
1795.74,12.4705
1804.26,6.69852
1812.78,2.95934
1821.3,1.30757
1829.82,7.48849
1838.35,12.5115
1846.87,14.2954
1855.39,11.1879
1863.91,12.939
1872.43,11.5121
1880.95,11.0068
1889.47,15.4097
1897.99,17.9699
1906.52,19.332
1915.04,17.5085
1923.56,20.3183
1932.08,16.1142
1940.6,16.3377
1949.12,21.1382
1957.64,24.9605
1966.17,20.7163
1974.69,20.3907
1983.21,20.7795
1991.73,11.2651
2000.25,0.174203
2008.77,-0.625994
2017.29,0.0
2025.81,0.0
2034.34,0.0
2042.86,0.0
2051.38,0.0
2059.9,0.0
2068.42,0.0
2076.94,0.0
2085.46,0.0
2093.98,0.0
2102.51,0.0
2111.03,0.0
2119.55,0.0
2128.07,0.0
2136.59,0.0
2145.11,0.0
2153.63,0.0
2162.16,0.0
2170.68,0.0
2179.2,0.0
2187.72,0.0
2196.24,0.0
2204.76,0.0
2213.28,0.0
2221.8,0.0
2230.33,0.0
2238.85,0.0
2247.37,0.0
2255.89,0.0
2264.41,0.0
2272.93,0.0
2281.45,0.0
2289.97,0.0
2298.5,0.0
2307.02,0.0
2315.54,0.0
2324.06,0.0
2332.58,0.0
2341.1,0.0
2349.62,0.0
2358.15,0.0
2366.67,0.0
2375.19,0.0
2383.71,0.0
2392.23,0.0
2400.75,0.0
2409.27,0.0
2417.79,0.0
2426.32,0.0
2434.84,0.0
2443.36,0.0
2451.88,0.0
2460.4,0.0
2468.92,0.0
2477.44,0.0
2485.96,0.0
2494.49,0.0
2503.01,0.0
2511.53,0.0
2520.05,0.0
2528.57,0.0
2537.09,0.0
2545.61,0.0
2554.14,0.0
2562.66,0.0
2571.18,0.0
2579.7,0.0
2588.22,0.0
2596.74,0.0
2605.26,0.0
2613.78,0.0
2622.31,0.0
2630.83,0.0
2639.35,0.0
2647.87,0.0
2656.39,0.0
2664.91,0.0
2673.43,0.0
2681.95,0.0
2690.48,0.0
2699,0.0
2707.52,0.0
2716.04,0.0
2724.56,0.0
2733.08,0.0
2741.6,0.0
2750.13,0.0
2758.65,0.0
2767.17,0.0
2775.69,0.0
2784.21,0.0
2792.73,0.0
2801.25,0.0
2809.77,0.0
2818.3,0.0
2826.82,0.0
2835.34,0.0
2843.86,0.0
2852.38,0.0
2860.9,0.0
2869.42,0.0
2877.94,0.0
2886.47,0.0
2894.99,0.0
2903.51,0.0
2912.03,0.0
2920.55,0.0
2929.07,0.0
2937.59,0.0
2946.12,0.0
2954.64,0.0
2963.16,0.0
2971.68,0.0
2980.2,0.0
2988.72,0.0
2997.24,0.0
3005.76,0.0
3014.29,0.0
3022.81,0.0
3031.33,0.0
3039.85,0.0
3048.37,0.0
3056.89,0.0
3065.41,0.0
3073.93,0.0
3082.46,0.0
3090.98,0.0
3099.5,0.0
3108.02,0.0
3116.54,0.0
3125.06,0.0
3133.58,0.0
3142.11,0.0
3150.63,0.0
3159.15,0.0
3167.67,0.0
3176.19,0.0
3184.71,0.0
3193.23,0.0
3201.75,0.0
3210.28,0.0
3218.8,0.0
3227.32,0.0
3235.84,0.0
3244.36,0.0
3252.88,0.0
3261.4,0.0
3269.92,0.0
3278.45,0.0
3286.97,0.0
3295.49,0.0
3304.01,0.0
3312.53,0.0
3321.05,0.0
3329.57,0.0
3338.1,0.0
3346.62,0.0
3355.14,0.0
3363.66,0.0
3372.18,0.0
3380.7,0.0
3389.22,0.0
3397.74,0.0
3406.27,0.0
3414.79,0.0
3423.31,0.0
3431.83,0.0
3440.35,0.0
3448.87,0.0
3457.39,0.0
3465.91,0.0
3474.44,0.0
3482.96,0.0
3491.48,0.0
3500.0,0.0