File: __exampleData/ML Plastics copy/top class a spectra/Class_A_X127_Y53_prob0.570.txt
# Class A Classified Spectrum:
# Position: X=127, Y=53
# Data Type: processed
# Original Filename: Steno-CT-33_01_Y053_X127.txt
# Classification Probability: 0.5700
#
Wavenumber Intensity
100.0 14.837
108.521 59.7937
117.043 75.3817
125.564 41.6011
134.085 35.7151
142.607 31.1583
151.128 36.0065
159.649 40.6682
168.17 46.8365
176.692 43.4779
185.213 30.4238
193.734 17.9832
202.256 11.3143
210.777 14.4483
219.298 13.1089
227.82 12.1587
236.341 12.9961
244.862 13.9227
253.383 12.6821
261.905 8.02387
270.426 -0.0218265
278.947 5.72785
287.469 18.8085
295.99 19.4469
304.511 8.02977
313.033 7.3465
321.554 18.2012
330.075 15.8518
338.596 9.49118
347.118 9.33434
355.639 13.3622
364.16 7.85643
372.682 6.83812
381.203 10.5469
389.724 13.3906
398.246 13.0933
406.767 10.0199
415.288 3.7444
423.81 2.46312
432.331 6.9721
440.852 6.15991
449.373 5.08304
457.895 7.35781
466.416 9.05881
474.937 10.7958
483.459 7.79807
491.98 6.94952
500.501 8.54619
509.023 14.6714
517.544 10.7461
526.065 3.16617
534.586 -1.75449
543.108 5.83347
551.629 11.6826
560.15 11.6413
568.672 2.87904
577.193 4.87028
585.714 3.94366
594.236 8.4865
602.757 6.39893
611.278 8.87214
619.799 9.93101
628.321 11.736
636.842 9.87047
645.363 6.10135
653.885 7.28934
662.406 10.6777
670.927 18.8061
679.449 19.386
687.97 18.5729
696.491 15.0834
705.013 12.8086
713.534 9.59143
722.055 7.98426
730.576 5.06677
739.098 3.28643
747.619 8.83026
756.14 11.2256
764.662 9.00975
773.183 10.3553
781.704 10.8468
790.226 12.998
798.747 10.4014
807.268 15.2101
815.789 16.9413
824.311 20.2577
832.832 15.9906
841.353 15.4443
849.875 17.4697
858.396 17.5543
866.917 20.6962
875.439 20.4007
883.96 14.1694
892.481 1.02767
901.003 -2.55275
909.524 -3.62448
918.045 0.907989
926.566 4.41509
935.088 10.7584
943.609 13.1043
952.13 12.3179
960.652 10.0912
969.173 10.2313
977.694 12.0138
986.216 10.5405
994.737 11.6689
1003.26 14.7785
1011.78 40.2854
1020.3 49.2997
1028.82 31.9371
1037.34 8.2793
1045.86 10.411
1054.39 16.8028
1062.91 18.2231
1071.43 20.2821
1079.95 16.0469
1088.47 13.3069
1096.99 18.6381
1105.51 19.2773
1114.04 9.9137
1122.56 3.35191
1131.08 7.55453
1139.6 9.07558
1148.12 8.61147
1156.64 2.42028
1165.16 1.27763
1173.68 0.548322
1182.21 7.04243
1190.73 9.4263
1199.25 12.2268
1207.77 14.449
1216.29 24.8113
1224.81 28.1097
1233.33 39.2954
1241.85 43.0049
1250.38 41.0913
1258.9 17.461
1267.42 9.45523
1275.94 11.5278
1284.46 20.9078
1292.98 21.0293
1301.5 18.0093
1310.03 13.2695
1318.55 12.5119
1327.07 7.6057
1335.59 7.92858
1344.11 13.0678
1352.63 17.5256
1361.15 15.4708
1369.67 15.2499
1378.2 10.5355
1386.72 10.5495
1395.24 9.18714
1403.76 13.515
1412.28 7.91296
1420.8 10.902
1429.32 9.79457
1437.84 13.0501
1446.37 14.5801
1454.89 13.1493
1463.41 11.9867
1471.93 9.85612
1480.45 10.0288
1488.97 7.14902
1497.49 9.64771
1506.02 13.3499
1514.54 11.1324
1523.06 8.36908
1531.58 10.8259
1540.1 13.9957
1548.62 4.82723
1557.14 1.11395
1565.66 0.202454
1574.19 9.34634
1582.71 12.9595
1591.23 16.4844
1599.75 9.86163
1608.27 8.65069
1616.79 7.13721
1625.31 10.9836
1633.83 13.4695
1642.36 4.71421
1650.88 -3.54415
1659.4 -3.89769
1667.92 3.22436
1676.44 1.35922
1684.96 7.73498
1693.48 12.1579
1702.01 15.8075
1710.53 12.8112
1719.05 9.51323
1727.57 3.66693
1736.09 2.85528
1744.61 5.846
1753.13 3.4606
1761.65 4.9915
1770.18 4.05039
1778.7 7.99446
1787.22 2.1645
1795.74 5.93761
1804.26 3.45775
1812.78 11.3114
1821.3 9.61775
1829.82 5.75016
1838.35 0.115963
1846.87 4.82355
1855.39 17.8812
1863.91 16.7613
1872.43 11.8159
1880.95 2.13721
1889.47 12.0714
1897.99 9.75187
1906.52 14.1575
1915.04 16.1816
1923.56 16.5111
1932.08 10.4484
1940.6 11.4003
1949.12 12.2314
1957.64 7.30937
1966.17 14.5697
1974.69 11.2885
1983.21 7.24349
1991.73 1.50057
2000.25 4.96278
2008.77 -1.07514
2017.29 0.0
2025.81 0.0
2034.34 0.0
2042.86 0.0
2051.38 0.0
2059.9 0.0
2068.42 0.0
2076.94 0.0
2085.46 0.0
2093.98 0.0
2102.51 0.0
2111.03 0.0
2119.55 0.0
2128.07 0.0
2136.59 0.0
2145.11 0.0
2153.63 0.0
2162.16 0.0
2170.68 0.0
2179.2 0.0
2187.72 0.0
2196.24 0.0
2204.76 0.0
2213.28 0.0
2221.8 0.0
2230.33 0.0
2238.85 0.0
2247.37 0.0
2255.89 0.0
2264.41 0.0
2272.93 0.0
2281.45 0.0
2289.97 0.0
2298.5 0.0
2307.02 0.0
2315.54 0.0
2324.06 0.0
2332.58 0.0
2341.1 0.0
2349.62 0.0
2358.15 0.0
2366.67 0.0
2375.19 0.0
2383.71 0.0
2392.23 0.0
2400.75 0.0
2409.27 0.0
2417.79 0.0
2426.32 0.0
2434.84 0.0
2443.36 0.0
2451.88 0.0
2460.4 0.0
2468.92 0.0
2477.44 0.0
2485.96 0.0
2494.49 0.0
2503.01 0.0
2511.53 0.0
2520.05 0.0
2528.57 0.0
2537.09 0.0
2545.61 0.0
2554.14 0.0
2562.66 0.0
2571.18 0.0
2579.7 0.0
2588.22 0.0
2596.74 0.0
2605.26 0.0
2613.78 0.0
2622.31 0.0
2630.83 0.0
2639.35 0.0
2647.87 0.0
2656.39 0.0
2664.91 0.0
2673.43 0.0
2681.95 0.0
2690.48 0.0
2699 0.0
2707.52 0.0
2716.04 0.0
2724.56 0.0
2733.08 0.0
2741.6 0.0
2750.13 0.0
2758.65 0.0
2767.17 0.0
2775.69 0.0
2784.21 0.0
2792.73 0.0
2801.25 0.0
2809.77 0.0
2818.3 0.0
2826.82 0.0
2835.34 0.0
2843.86 0.0
2852.38 0.0
2860.9 0.0
2869.42 0.0
2877.94 0.0
2886.47 0.0
2894.99 0.0
2903.51 0.0
2912.03 0.0
2920.55 0.0
2929.07 0.0
2937.59 0.0
2946.12 0.0
2954.64 0.0
2963.16 0.0
2971.68 0.0
2980.2 0.0
2988.72 0.0
2997.24 0.0
3005.76 0.0
3014.29 0.0
3022.81 0.0
3031.33 0.0
3039.85 0.0
3048.37 0.0
3056.89 0.0
3065.41 0.0
3073.93 0.0
3082.46 0.0
3090.98 0.0
3099.5 0.0
3108.02 0.0
3116.54 0.0
3125.06 0.0
3133.58 0.0
3142.11 0.0
3150.63 0.0
3159.15 0.0
3167.67 0.0
3176.19 0.0
3184.71 0.0
3193.23 0.0
3201.75 0.0
3210.28 0.0
3218.8 0.0
3227.32 0.0
3235.84 0.0
3244.36 0.0
3252.88 0.0
3261.4 0.0
3269.92 0.0
3278.45 0.0
3286.97 0.0
3295.49 0.0
3304.01 0.0
3312.53 0.0
3321.05 0.0
3329.57 0.0
3338.1 0.0
3346.62 0.0
3355.14 0.0
3363.66 0.0
3372.18 0.0
3380.7 0.0
3389.22 0.0
3397.74 0.0
3406.27 0.0
3414.79 0.0
3423.31 0.0
3431.83 0.0
3440.35 0.0
3448.87 0.0
3457.39 0.0
3465.91 0.0
3474.44 0.0
3482.96 0.0
3491.48 0.0
3500.0 0.0