File: __exampleData/ML Plastics copy/top class a spectra/Class_A_Top_01_X93_Y31_prob0.900.txt
# Class A Spectrum - Top: 1
# Position: X=93, Y=31
# Classification Probability: 0.9000
# Data Type: processed
# Original Filename: Steno-CT-33_01_Y031_X093.txt
#
Wavenumber Intensity
100.0 -0.216313
108.521 12.8827
117.043 17.2035
125.564 10.7661
134.085 3.40646
142.607 0.764392
151.128 4.60103
159.649 9.22796
168.17 7.0497
176.692 5.99707
185.213 6.32398
193.734 6.64515
202.256 2.78992
210.777 0.975523
219.298 4.89454
227.82 10.0315
236.341 15.1191
244.862 17.8281
253.383 15.7442
261.905 11.4619
270.426 6.9973
278.947 6.51022
287.469 8.27419
295.99 9.69581
304.511 14.679
313.033 16.9994
321.554 14.3479
330.075 10.2176
338.596 11.8332
347.118 12.3191
355.639 8.44328
364.16 4.11669
372.682 11.2372
381.203 11.7797
389.724 20.6532
398.246 16.7554
406.767 8.8988
415.288 2.4892
423.81 9.49438
432.331 16.9064
440.852 12.8902
449.373 7.10702
457.895 4.45229
466.416 8.63543
474.937 15.847
483.459 14.5597
491.98 12.1183
500.501 5.19909
509.023 8.0398
517.544 9.49231
526.065 15.8239
534.586 10.598
543.108 7.28577
551.629 3.24518
560.15 12.6891
568.672 14.7664
577.193 15.2867
585.714 9.71901
594.236 2.91929
602.757 4.81901
611.278 9.76731
619.799 13.1189
628.321 6.56837
636.842 4.10604
645.363 4.51525
653.885 6.40118
662.406 7.29947
670.927 7.14515
679.449 11.5844
687.97 12.7453
696.491 9.8391
705.013 13.419
713.534 15.5025
722.055 12.3515
730.576 5.13054
739.098 9.43108
747.619 12.5413
756.14 15.1994
764.662 17.4341
773.183 19.8314
781.704 13.101
790.226 5.96361
798.747 8.44363
807.268 15.6604
815.789 19.404
824.311 13.618
832.832 11.4253
841.353 10.3126
849.875 17.3184
858.396 21.251
866.917 18.5133
875.439 14.9015
883.96 15.2816
892.481 13.5304
901.003 13.064
909.524 16.6688
918.045 12.8222
926.566 2.27817
935.088 4.48189
943.609 10.7354
952.13 13.2182
960.652 11.3539
969.173 11.6685
977.694 10.8942
986.216 9.39907
994.737 8.82962
1003.26 10.1005
1011.78 15.313
1020.3 13.2348
1028.82 12.3775
1037.34 14.4264
1045.86 20.4281
1054.39 20.5659
1062.91 16.6677
1071.43 15.5693
1079.95 13.0448
1088.47 11.7738
1096.99 2.67157
1105.51 1.69644
1114.04 3.37247
1122.56 4.71354
1131.08 10.6876
1139.6 13.8778
1148.12 14.095
1156.64 7.04821
1165.16 12.5255
1173.68 15.0603
1182.21 16.7375
1190.73 11.6335
1199.25 7.92562
1207.77 8.13217
1216.29 6.8166
1224.81 13.0413
1233.33 16.5606
1241.85 14.8905
1250.38 -2.77376
1258.9 -6.30649
1267.42 -2.34659
1275.94 6.89433
1284.46 10.0203
1292.98 13.9917
1301.5 12.8423
1310.03 -98.0783
1318.55 283.424
1327.07 1317.8
1335.59 1417.46
1344.11 585.187
1352.63 -153.75
1361.15 13.1965
1369.67 13.5045
1378.2 14.3568
1386.72 15.2248
1395.24 10.284
1403.76 5.30005
1412.28 4.76854
1420.8 11.821
1429.32 12.9554
1437.84 7.2681
1446.37 6.73661
1454.89 10.027
1463.41 13.8021
1471.93 7.47485
1480.45 2.74735
1488.97 0.773355
1497.49 5.99203
1506.02 7.07419
1514.54 8.76672
1523.06 9.36974
1531.58 7.42924
1540.1 6.72287
1548.62 11.4431
1557.14 10.3184
1565.66 6.66131
1574.19 2.85512
1582.71 6.43766
1591.23 7.72221
1599.75 6.57194
1608.27 8.98535
1616.79 12.2914
1625.31 14.351
1633.83 10.546
1642.36 5.41871
1650.88 7.97904
1659.4 11.9437
1667.92 12.1682
1676.44 6.77042
1684.96 4.21918
1693.48 5.09283
1702.01 10.3623
1710.53 13.4732
1719.05 10.6418
1727.57 9.63492
1736.09 11.7473
1744.61 13.9924
1753.13 14.5721
1761.65 12.0768
1770.18 9.32028
1778.7 10.618
1787.22 9.6971
1795.74 5.83459
1804.26 5.45734
1812.78 4.50627
1821.3 1.73211
1829.82 2.71644
1838.35 4.64109
1846.87 5.86515
1855.39 8.269
1863.91 11.1486
1872.43 9.6778
1880.95 4.60155
1889.47 5.83359
1897.99 11.5473
1906.52 10.557
1915.04 4.92829
1923.56 7.33218
1932.08 7.53864
1940.6 0.814625
1949.12 0.197364
1957.64 4.89108
1966.17 4.61937
1974.69 5.90461
1983.21 9.92473
1991.73 7.73305
2000.25 0.802624
2008.77 -0.515941
2017.29 0.0
2025.81 0.0
2034.34 0.0
2042.86 0.0
2051.38 0.0
2059.9 0.0
2068.42 0.0
2076.94 0.0
2085.46 0.0
2093.98 0.0
2102.51 0.0
2111.03 0.0
2119.55 0.0
2128.07 0.0
2136.59 0.0
2145.11 0.0
2153.63 0.0
2162.16 0.0
2170.68 0.0
2179.2 0.0
2187.72 0.0
2196.24 0.0
2204.76 0.0
2213.28 0.0
2221.8 0.0
2230.33 0.0
2238.85 0.0
2247.37 0.0
2255.89 0.0
2264.41 0.0
2272.93 0.0
2281.45 0.0
2289.97 0.0
2298.5 0.0
2307.02 0.0
2315.54 0.0
2324.06 0.0
2332.58 0.0
2341.1 0.0
2349.62 0.0
2358.15 0.0
2366.67 0.0
2375.19 0.0
2383.71 0.0
2392.23 0.0
2400.75 0.0
2409.27 0.0
2417.79 0.0
2426.32 0.0
2434.84 0.0
2443.36 0.0
2451.88 0.0
2460.4 0.0
2468.92 0.0
2477.44 0.0
2485.96 0.0
2494.49 0.0
2503.01 0.0
2511.53 0.0
2520.05 0.0
2528.57 0.0
2537.09 0.0
2545.61 0.0
2554.14 0.0
2562.66 0.0
2571.18 0.0
2579.7 0.0
2588.22 0.0
2596.74 0.0
2605.26 0.0
2613.78 0.0
2622.31 0.0
2630.83 0.0
2639.35 0.0
2647.87 0.0
2656.39 0.0
2664.91 0.0
2673.43 0.0
2681.95 0.0
2690.48 0.0
2699 0.0
2707.52 0.0
2716.04 0.0
2724.56 0.0
2733.08 0.0
2741.6 0.0
2750.13 0.0
2758.65 0.0
2767.17 0.0
2775.69 0.0
2784.21 0.0
2792.73 0.0
2801.25 0.0
2809.77 0.0
2818.3 0.0
2826.82 0.0
2835.34 0.0
2843.86 0.0
2852.38 0.0
2860.9 0.0
2869.42 0.0
2877.94 0.0
2886.47 0.0
2894.99 0.0
2903.51 0.0
2912.03 0.0
2920.55 0.0
2929.07 0.0
2937.59 0.0
2946.12 0.0
2954.64 0.0
2963.16 0.0
2971.68 0.0
2980.2 0.0
2988.72 0.0
2997.24 0.0
3005.76 0.0
3014.29 0.0
3022.81 0.0
3031.33 0.0
3039.85 0.0
3048.37 0.0
3056.89 0.0
3065.41 0.0
3073.93 0.0
3082.46 0.0
3090.98 0.0
3099.5 0.0
3108.02 0.0
3116.54 0.0
3125.06 0.0
3133.58 0.0
3142.11 0.0
3150.63 0.0
3159.15 0.0
3167.67 0.0
3176.19 0.0
3184.71 0.0
3193.23 0.0
3201.75 0.0
3210.28 0.0
3218.8 0.0
3227.32 0.0
3235.84 0.0
3244.36 0.0
3252.88 0.0
3261.4 0.0
3269.92 0.0
3278.45 0.0
3286.97 0.0
3295.49 0.0
3304.01 0.0
3312.53 0.0
3321.05 0.0
3329.57 0.0
3338.1 0.0
3346.62 0.0
3355.14 0.0
3363.66 0.0
3372.18 0.0
3380.7 0.0
3389.22 0.0
3397.74 0.0
3406.27 0.0
3414.79 0.0
3423.31 0.0
3431.83 0.0
3440.35 0.0
3448.87 0.0
3457.39 0.0
3465.91 0.0
3474.44 0.0
3482.96 0.0
3491.48 0.0
3500.0 0.0