File: __exampleData/ML Plastics copy/top class a spectra/Class_A_Top_10_X52_Y38_prob0.540.csv
# Class A Spectrum - Top 10
# Position: X=52, Y=38
# Classification Probability: 0.5400
# Data Type: processed
# Original Filename: Steno-CT-33_01_Y038_X052.txt
#
Wavenumber,Intensity
100.0,1.58204
108.521,8.04287
117.043,11.9128
125.564,12.3902
134.085,12.0531
142.607,-0.291282
151.128,2.71943
159.649,8.32798
168.17,16.4335
176.692,11.9136
185.213,9.97191
193.734,5.82556
202.256,7.76787
210.777,16.2474
219.298,12.7714
227.82,12.6639
236.341,8.85748
244.862,11.8444
253.383,3.34391
261.905,3.51332
270.426,3.88274
278.947,9.36235
287.469,10.3999
295.99,10.1479
304.511,8.64241
313.033,12.2558
321.554,12.1303
330.075,13.9206
338.596,11.5393
347.118,12.0968
355.639,11.4016
364.16,10.8478
372.682,6.34416
381.203,4.96515
389.724,6.62106
398.246,2.4698
406.767,-0.0278052
415.288,3.93009
423.81,8.42177
432.331,14.4153
440.852,17.3058
449.373,11.4997
457.895,1.62104
466.416,6.32357
474.937,12.5142
483.459,8.75731
491.98,3.6994
500.501,8.01588
509.023,13.4902
517.544,11.0814
526.065,6.97741
534.586,7.40565
543.108,9.85282
551.629,11.8938
560.15,11.9248
568.672,12.6642
577.193,6.31387
585.714,4.52485
594.236,0.47835
602.757,3.40085
611.278,7.87395
619.799,9.59565
628.321,5.24938
636.842,-3.9781
645.363,5.18942
653.885,12.2343
662.406,16.916
670.927,4.88094
679.449,9.44308
687.97,11.7791
696.491,13.1429
705.013,12.9562
713.534,16.6092
722.055,15.5861
730.576,6.84993
739.098,7.14335
747.619,14.0152
756.14,19.4422
764.662,17.1572
773.183,6.12026
781.704,4.62349
790.226,7.45629
798.747,11.1269
807.268,7.80067
815.789,9.44237
824.311,11.311
832.832,11.4329
841.353,12.1486
849.875,15.8024
858.396,9.90358
866.917,9.01152
875.439,5.33017
883.96,8.9476
892.481,7.27596
901.003,6.67036
909.524,6.62227
918.045,8.53819
926.566,6.75403
935.088,6.88468
943.609,8.96028
952.13,13.5484
960.652,13.1429
969.173,14.7707
977.694,14.4814
986.216,9.95009
994.737,8.81764
1003.26,11.7792
1011.78,16.3819
1020.3,11.8949
1028.82,10.529
1037.34,11.862
1045.86,11.5065
1054.39,13.013
1062.91,17.6469
1071.43,14.942
1079.95,7.45114
1088.47,8.5404
1096.99,11.3652
1105.51,9.69254
1114.04,4.25468
1122.56,12.1662
1131.08,13.5582
1139.6,11.8354
1148.12,7.66328
1156.64,9.56249
1165.16,7.51232
1173.68,11.3015
1182.21,10.6114
1190.73,12.5562
1199.25,11.6401
1207.77,15.1825
1216.29,11.2346
1224.81,5.28365
1233.33,-0.00902875
1241.85,3.25178
1250.38,8.99675
1258.9,17.0186
1267.42,10.2067
1275.94,9.38054
1284.46,5.88121
1292.98,10.6197
1301.5,2.80262
1310.03,4.28347
1318.55,7.47687
1327.07,10.7303
1335.59,5.36436
1344.11,-9.03869
1352.63,-271.076
1361.15,694.815
1369.67,4436.97
1378.2,8504.51
1386.72,6817.11
1395.24,2166.4
1403.76,-558.97
1412.28,-23.0322
1420.8,8.41117
1429.32,1.41823
1437.84,3.09703
1446.37,5.72963
1454.89,5.0246
1463.41,2.82847
1471.93,6.95216
1480.45,11.2808
1488.97,5.96832
1497.49,3.25984
1506.02,5.25323
1514.54,6.82909
1523.06,0.893593
1531.58,5.12096
1540.1,12.3435
1548.62,13.3507
1557.14,3.99785
1565.66,-2.82208
1574.19,3.65339
1582.71,12.8273
1591.23,8.74199
1599.75,4.96166
1608.27,9.96009
1616.79,13.0596
1625.31,7.67355
1633.83,7.91554
1642.36,8.36077
1650.88,13.5194
1659.4,12.4265
1667.92,8.76489
1676.44,1.17463
1684.96,5.01665
1693.48,9.49355
1702.01,14.0377
1710.53,13.7642
1719.05,12.1083
1727.57,11.6312
1736.09,10.6133
1744.61,7.43365
1753.13,10.5912
1761.65,14.5059
1770.18,17.5229
1778.7,9.56654
1787.22,6.47685
1795.74,5.18391
1804.26,6.97442
1812.78,4.57907
1821.3,2.06479
1829.82,5.62132
1838.35,8.51722
1846.87,11.6599
1855.39,6.37367
1863.91,5.40398
1872.43,13.2606
1880.95,17.451
1889.47,14.5574
1897.99,9.70545
1906.52,14.5942
1915.04,12.2871
1923.56,12.0248
1932.08,8.43132
1940.6,5.93769
1949.12,4.66638
1957.64,9.45307
1966.17,17.1116
1974.69,14.9982
1983.21,16.382
1991.73,10.2602
2000.25,5.57496
2008.77,-1.58302
2017.29,0.0
2025.81,0.0
2034.34,0.0
2042.86,0.0
2051.38,0.0
2059.9,0.0
2068.42,0.0
2076.94,0.0
2085.46,0.0
2093.98,0.0
2102.51,0.0
2111.03,0.0
2119.55,0.0
2128.07,0.0
2136.59,0.0
2145.11,0.0
2153.63,0.0
2162.16,0.0
2170.68,0.0
2179.2,0.0
2187.72,0.0
2196.24,0.0
2204.76,0.0
2213.28,0.0
2221.8,0.0
2230.33,0.0
2238.85,0.0
2247.37,0.0
2255.89,0.0
2264.41,0.0
2272.93,0.0
2281.45,0.0
2289.97,0.0
2298.5,0.0
2307.02,0.0
2315.54,0.0
2324.06,0.0
2332.58,0.0
2341.1,0.0
2349.62,0.0
2358.15,0.0
2366.67,0.0
2375.19,0.0
2383.71,0.0
2392.23,0.0
2400.75,0.0
2409.27,0.0
2417.79,0.0
2426.32,0.0
2434.84,0.0
2443.36,0.0
2451.88,0.0
2460.4,0.0
2468.92,0.0
2477.44,0.0
2485.96,0.0
2494.49,0.0
2503.01,0.0
2511.53,0.0
2520.05,0.0
2528.57,0.0
2537.09,0.0
2545.61,0.0
2554.14,0.0
2562.66,0.0
2571.18,0.0
2579.7,0.0
2588.22,0.0
2596.74,0.0
2605.26,0.0
2613.78,0.0
2622.31,0.0
2630.83,0.0
2639.35,0.0
2647.87,0.0
2656.39,0.0
2664.91,0.0
2673.43,0.0
2681.95,0.0
2690.48,0.0
2699,0.0
2707.52,0.0
2716.04,0.0
2724.56,0.0
2733.08,0.0
2741.6,0.0
2750.13,0.0
2758.65,0.0
2767.17,0.0
2775.69,0.0
2784.21,0.0
2792.73,0.0
2801.25,0.0
2809.77,0.0
2818.3,0.0
2826.82,0.0
2835.34,0.0
2843.86,0.0
2852.38,0.0
2860.9,0.0
2869.42,0.0
2877.94,0.0
2886.47,0.0
2894.99,0.0
2903.51,0.0
2912.03,0.0
2920.55,0.0
2929.07,0.0
2937.59,0.0
2946.12,0.0
2954.64,0.0
2963.16,0.0
2971.68,0.0
2980.2,0.0
2988.72,0.0
2997.24,0.0
3005.76,0.0
3014.29,0.0
3022.81,0.0
3031.33,0.0
3039.85,0.0
3048.37,0.0
3056.89,0.0
3065.41,0.0
3073.93,0.0
3082.46,0.0
3090.98,0.0
3099.5,0.0
3108.02,0.0
3116.54,0.0
3125.06,0.0
3133.58,0.0
3142.11,0.0
3150.63,0.0
3159.15,0.0
3167.67,0.0
3176.19,0.0
3184.71,0.0
3193.23,0.0
3201.75,0.0
3210.28,0.0
3218.8,0.0
3227.32,0.0
3235.84,0.0
3244.36,0.0
3252.88,0.0
3261.4,0.0
3269.92,0.0
3278.45,0.0
3286.97,0.0
3295.49,0.0
3304.01,0.0
3312.53,0.0
3321.05,0.0
3329.57,0.0
3338.1,0.0
3346.62,0.0
3355.14,0.0
3363.66,0.0
3372.18,0.0
3380.7,0.0
3389.22,0.0
3397.74,0.0
3406.27,0.0
3414.79,0.0
3423.31,0.0
3431.83,0.0
3440.35,0.0
3448.87,0.0
3457.39,0.0
3465.91,0.0
3474.44,0.0
3482.96,0.0
3491.48,0.0
3500.0,0.0