File: __exampleData/ML Plastics copy/top class a spectra/Class_A_Top_06_X123_Y45_prob0.600.csv
# Class A Spectrum - Top 6
# Position: X=123, Y=45
# Classification Probability: 0.6000
# Data Type: processed
# Original Filename: Steno-CT-33_01_Y045_X123.txt
#
Wavenumber,Intensity
100.0,18.9062
108.521,117.601
117.043,150.147
125.564,87.0304
134.085,35.6041
142.607,18.9895
151.128,29.1233
159.649,45.1909
168.17,65.752
176.692,62.2912
185.213,47.1889
193.734,25.1206
202.256,13.0416
210.777,9.02793
219.298,7.24417
227.82,12.2405
236.341,7.44703
244.862,13.3701
253.383,10.075
261.905,6.95172
270.426,4.10327
278.947,9.25456
287.469,9.20515
295.99,6.6768
304.511,11.5654
313.033,13.5377
321.554,7.27266
330.075,0.154502
338.596,2.98192
347.118,8.07601
355.639,5.86576
364.16,2.84407
372.682,0.137989
381.203,5.87512
389.724,3.79526
398.246,4.4476
406.767,1.03895
415.288,5.81793
423.81,5.0318
432.331,8.75705
440.852,11.4713
449.373,12.9668
457.895,9.27496
466.416,8.74324
474.937,12.694
483.459,15.2897
491.98,11.6169
500.501,7.02094
509.023,9.83157
517.544,9.80948
526.065,7.78215
534.586,3.38286
543.108,8.63139
551.629,14.4982
560.15,12.5376
568.672,8.72067
577.193,1.10484
585.714,1.22859
594.236,-1.53653
602.757,4.2433
611.278,5.6907
619.799,9.30625
628.321,10.7599
636.842,8.6325
645.363,10.4904
653.885,11.5887
662.406,14.033
670.927,11.5906
679.449,19.7178
687.97,25.9089
696.491,17.6208
705.013,13.0536
713.534,11.7909
722.055,14.4613
730.576,11.3976
739.098,11.645
747.619,11.315
756.14,7.50324
764.662,12.0856
773.183,10.9738
781.704,9.10266
790.226,1.0779
798.747,4.73162
807.268,11.142
815.789,13.5824
824.311,12.4286
832.832,11.6521
841.353,10.8841
849.875,8.88449
858.396,10.6014
866.917,13.5398
875.439,18.6377
883.96,21.1608
892.481,21.7151
901.003,9.93427
909.524,5.56899
918.045,3.11007
926.566,4.98182
935.088,2.21612
943.609,10.9407
952.13,10.3978
960.652,6.53988
969.173,7.9079
977.694,12.1879
986.216,14.3477
994.737,6.55076
1003.26,8.38766
1011.78,45.518
1020.3,89.7714
1028.82,78.1952
1037.34,33.0589
1045.86,12.0764
1054.39,15.6093
1062.91,12.298
1071.43,10.0744
1079.95,8.27502
1088.47,21.6353
1096.99,18.2568
1105.51,13.8953
1114.04,5.43444
1122.56,9.57844
1131.08,6.61329
1139.6,7.64173
1148.12,10.1148
1156.64,9.464
1165.16,11.2896
1173.68,9.95651
1182.21,14.0523
1190.73,16.1354
1199.25,13.5097
1207.77,6.64295
1216.29,18.0378
1224.81,35.9198
1233.33,54.0509
1241.85,59.0913
1250.38,50.2131
1258.9,26.2107
1267.42,9.20781
1275.94,9.83158
1284.46,11.312
1292.98,11.7454
1301.5,6.80247
1310.03,8.24939
1318.55,7.61365
1327.07,7.08427
1335.59,11.4814
1344.11,16.3419
1352.63,13.845
1361.15,3.71703
1369.67,8.35125
1378.2,10.502
1386.72,16.432
1395.24,10.2704
1403.76,12.7319
1412.28,11.0273
1420.8,12.5156
1429.32,6.00733
1437.84,10.7724
1446.37,8.74504
1454.89,11.8891
1463.41,7.35935
1471.93,8.30107
1480.45,2.80943
1488.97,6.92816
1497.49,5.59102
1506.02,4.58127
1514.54,6.57534
1523.06,7.99375
1531.58,7.70474
1540.1,9.68104
1548.62,11.6972
1557.14,7.55866
1565.66,4.99217
1574.19,5.06957
1582.71,9.6498
1591.23,7.77604
1599.75,9.09506
1608.27,7.58842
1616.79,6.50137
1625.31,-2.76363
1633.83,-2.38146
1642.36,0.768248
1650.88,7.07953
1659.4,-0.124331
1667.92,7.39274
1676.44,11.8337
1684.96,14.6142
1693.48,7.39461
1702.01,5.92533
1710.53,9.41343
1719.05,15.6274
1727.57,15.198
1736.09,5.30687
1744.61,0.0739466
1753.13,3.46737
1761.65,6.91949
1770.18,6.29263
1778.7,10.7179
1787.22,5.17071
1795.74,0.257231
1804.26,-2.68371
1812.78,5.15589
1821.3,4.94134
1829.82,4.6778
1838.35,10.4097
1846.87,12.2599
1855.39,12.3226
1863.91,9.78108
1872.43,16.1334
1880.95,9.96107
1889.47,5.60131
1897.99,3.8706
1906.52,14.128
1915.04,11.1424
1923.56,11.2055
1932.08,10.3385
1940.6,7.9712
1949.12,4.55982
1957.64,5.68314
1966.17,10.7169
1974.69,5.74399
1983.21,7.4356
1991.73,4.79159
2000.25,4.00544
2008.77,-1.00522
2017.29,0.0
2025.81,0.0
2034.34,0.0
2042.86,0.0
2051.38,0.0
2059.9,0.0
2068.42,0.0
2076.94,0.0
2085.46,0.0
2093.98,0.0
2102.51,0.0
2111.03,0.0
2119.55,0.0
2128.07,0.0
2136.59,0.0
2145.11,0.0
2153.63,0.0
2162.16,0.0
2170.68,0.0
2179.2,0.0
2187.72,0.0
2196.24,0.0
2204.76,0.0
2213.28,0.0
2221.8,0.0
2230.33,0.0
2238.85,0.0
2247.37,0.0
2255.89,0.0
2264.41,0.0
2272.93,0.0
2281.45,0.0
2289.97,0.0
2298.5,0.0
2307.02,0.0
2315.54,0.0
2324.06,0.0
2332.58,0.0
2341.1,0.0
2349.62,0.0
2358.15,0.0
2366.67,0.0
2375.19,0.0
2383.71,0.0
2392.23,0.0
2400.75,0.0
2409.27,0.0
2417.79,0.0
2426.32,0.0
2434.84,0.0
2443.36,0.0
2451.88,0.0
2460.4,0.0
2468.92,0.0
2477.44,0.0
2485.96,0.0
2494.49,0.0
2503.01,0.0
2511.53,0.0
2520.05,0.0
2528.57,0.0
2537.09,0.0
2545.61,0.0
2554.14,0.0
2562.66,0.0
2571.18,0.0
2579.7,0.0
2588.22,0.0
2596.74,0.0
2605.26,0.0
2613.78,0.0
2622.31,0.0
2630.83,0.0
2639.35,0.0
2647.87,0.0
2656.39,0.0
2664.91,0.0
2673.43,0.0
2681.95,0.0
2690.48,0.0
2699,0.0
2707.52,0.0
2716.04,0.0
2724.56,0.0
2733.08,0.0
2741.6,0.0
2750.13,0.0
2758.65,0.0
2767.17,0.0
2775.69,0.0
2784.21,0.0
2792.73,0.0
2801.25,0.0
2809.77,0.0
2818.3,0.0
2826.82,0.0
2835.34,0.0
2843.86,0.0
2852.38,0.0
2860.9,0.0
2869.42,0.0
2877.94,0.0
2886.47,0.0
2894.99,0.0
2903.51,0.0
2912.03,0.0
2920.55,0.0
2929.07,0.0
2937.59,0.0
2946.12,0.0
2954.64,0.0
2963.16,0.0
2971.68,0.0
2980.2,0.0
2988.72,0.0
2997.24,0.0
3005.76,0.0
3014.29,0.0
3022.81,0.0
3031.33,0.0
3039.85,0.0
3048.37,0.0
3056.89,0.0
3065.41,0.0
3073.93,0.0
3082.46,0.0
3090.98,0.0
3099.5,0.0
3108.02,0.0
3116.54,0.0
3125.06,0.0
3133.58,0.0
3142.11,0.0
3150.63,0.0
3159.15,0.0
3167.67,0.0
3176.19,0.0
3184.71,0.0
3193.23,0.0
3201.75,0.0
3210.28,0.0
3218.8,0.0
3227.32,0.0
3235.84,0.0
3244.36,0.0
3252.88,0.0
3261.4,0.0
3269.92,0.0
3278.45,0.0
3286.97,0.0
3295.49,0.0
3304.01,0.0
3312.53,0.0
3321.05,0.0
3329.57,0.0
3338.1,0.0
3346.62,0.0
3355.14,0.0
3363.66,0.0
3372.18,0.0
3380.7,0.0
3389.22,0.0
3397.74,0.0
3406.27,0.0
3414.79,0.0
3423.31,0.0
3431.83,0.0
3440.35,0.0
3448.87,0.0
3457.39,0.0
3465.91,0.0
3474.44,0.0
3482.96,0.0
3491.48,0.0
3500.0,0.0