File: __exampleData/ML Plastics copy/top class a spectra/Class_A_X130_Y39_prob0.550.txt
# Class A Classified Spectrum:
# Position: X=130, Y=39
# Data Type: processed
# Original Filename: Steno-CT-33_01_Y039_X130.txt
# Classification Probability: 0.5500
#
Wavenumber Intensity
100.0 13.7166
108.521 73.5699
117.043 91.5076
125.564 45.4143
134.085 16.5683
142.607 24.4398
151.128 25.7422
159.649 28.3931
168.17 30.9862
176.692 32.9043
185.213 22.6867
193.734 16.4503
202.256 14.269
210.777 17.1691
219.298 14.2694
227.82 8.81904
236.341 2.74605
244.862 4.34598
253.383 4.38555
261.905 6.40114
270.426 7.45663
278.947 6.21365
287.469 11.6359
295.99 8.13851
304.511 0.508834
313.033 -1.13102
321.554 8.86739
330.075 8.8018
338.596 5.0978
347.118 3.64435
355.639 8.24544
364.16 13.2596
372.682 19.27
381.203 16.1622
389.724 12.3495
398.246 6.53027
406.767 0.00201973
415.288 -0.12703
423.81 4.56302
432.331 8.38837
440.852 5.71483
449.373 5.80969
457.895 9.30045
466.416 13.0735
474.937 16.4284
483.459 12.1062
491.98 9.76475
500.501 8.63302
509.023 8.40486
517.544 8.09703
526.065 6.5791
534.586 4.21119
543.108 5.64652
551.629 8.71027
560.15 7.49035
568.672 0.606809
577.193 -0.291955
585.714 6.15273
594.236 7.75697
602.757 3.56109
611.278 -4.98069
619.799 0.315384
628.321 1.04347
636.842 5.87558
645.363 4.63977
653.885 7.71531
662.406 9.97405
670.927 17.5422
679.449 16.992
687.97 12.9397
696.491 11.1344
705.013 10.227
713.534 9.59045
722.055 5.62153
730.576 3.2125
739.098 6.54662
747.619 7.61442
756.14 5.64693
764.662 5.2837
773.183 14.0524
781.704 10.8686
790.226 10.8173
798.747 12.4216
807.268 15.2086
815.789 11.6209
824.311 12.9653
832.832 14.5609
841.353 18.8161
849.875 17.0397
858.396 14.1918
866.917 8.1061
875.439 13.7723
883.96 8.94715
892.481 7.35457
901.003 1.82738
909.524 4.0702
918.045 2.63964
926.566 7.99832
935.088 11.0675
943.609 9.8941
952.13 9.34153
960.652 9.58787
969.173 5.58642
977.694 6.46419
986.216 9.47707
994.737 15.3825
1003.26 18.9691
1011.78 40.4571
1020.3 51.506
1028.82 43.2183
1037.34 17.282
1045.86 7.54606
1054.39 12.2222
1062.91 17.8989
1071.43 18.1353
1079.95 20.356
1088.47 23.4144
1096.99 14.253
1105.51 10.8442
1114.04 9.37251
1122.56 9.0484
1131.08 5.20621
1139.6 9.79682
1148.12 9.66086
1156.64 5.64716
1165.16 3.42309
1173.68 4.47458
1182.21 11.4329
1190.73 18.6993
1199.25 19.8661
1207.77 14.5389
1216.29 16.0841
1224.81 17.6891
1233.33 25.0052
1241.85 21.7448
1250.38 25.1904
1258.9 16.5345
1267.42 13.0371
1275.94 3.44534
1284.46 7.23899
1292.98 3.58917
1301.5 6.0604
1310.03 5.1085
1318.55 14.1257
1327.07 7.88779
1335.59 7.75961
1344.11 6.80073
1352.63 14.2735
1361.15 5.06043
1369.67 1.58074
1378.2 5.88486
1386.72 14.9971
1395.24 18.0416
1403.76 16.7115
1412.28 15.8529
1420.8 15.8759
1429.32 17.0016
1437.84 13.9662
1446.37 9.0708
1454.89 6.3456
1463.41 5.04587
1471.93 7.81045
1480.45 12.6813
1488.97 18.2557
1497.49 9.69794
1506.02 1.89801
1514.54 1.57716
1523.06 8.55099
1531.58 4.14853
1540.1 1.98605
1548.62 10.0294
1557.14 15.0191
1565.66 11.7697
1574.19 11.9942
1582.71 14.4365
1591.23 10.5672
1599.75 0.32083
1608.27 0.658556
1616.79 4.41939
1625.31 3.30242
1633.83 -2.67249
1642.36 -0.309094
1650.88 1.91859
1659.4 2.83258
1667.92 5.29567
1676.44 13.2541
1684.96 15.3773
1693.48 10.2533
1702.01 4.41279
1710.53 1.60068
1719.05 0.890383
1727.57 5.94823
1736.09 8.10812
1744.61 7.39134
1753.13 -0.214798
1761.65 8.23073
1770.18 9.59583
1778.7 9.57307
1787.22 4.90623
1795.74 10.6423
1804.26 11.1202
1812.78 8.02054
1821.3 5.92414
1829.82 5.56096
1838.35 6.72292
1846.87 2.78079
1855.39 2.39816
1863.91 6.22984
1872.43 8.346
1880.95 1.18116
1889.47 -4.44418
1897.99 -0.597127
1906.52 9.34591
1915.04 9.46475
1923.56 11.1589
1932.08 13.4836
1940.6 21.0251
1949.12 12.8337
1957.64 6.17315
1966.17 3.22933
1974.69 6.21169
1983.21 7.16095
1991.73 5.67287
2000.25 2.77332
2008.77 -0.798569
2017.29 0.0
2025.81 0.0
2034.34 0.0
2042.86 0.0
2051.38 0.0
2059.9 0.0
2068.42 0.0
2076.94 0.0
2085.46 0.0
2093.98 0.0
2102.51 0.0
2111.03 0.0
2119.55 0.0
2128.07 0.0
2136.59 0.0
2145.11 0.0
2153.63 0.0
2162.16 0.0
2170.68 0.0
2179.2 0.0
2187.72 0.0
2196.24 0.0
2204.76 0.0
2213.28 0.0
2221.8 0.0
2230.33 0.0
2238.85 0.0
2247.37 0.0
2255.89 0.0
2264.41 0.0
2272.93 0.0
2281.45 0.0
2289.97 0.0
2298.5 0.0
2307.02 0.0
2315.54 0.0
2324.06 0.0
2332.58 0.0
2341.1 0.0
2349.62 0.0
2358.15 0.0
2366.67 0.0
2375.19 0.0
2383.71 0.0
2392.23 0.0
2400.75 0.0
2409.27 0.0
2417.79 0.0
2426.32 0.0
2434.84 0.0
2443.36 0.0
2451.88 0.0
2460.4 0.0
2468.92 0.0
2477.44 0.0
2485.96 0.0
2494.49 0.0
2503.01 0.0
2511.53 0.0
2520.05 0.0
2528.57 0.0
2537.09 0.0
2545.61 0.0
2554.14 0.0
2562.66 0.0
2571.18 0.0
2579.7 0.0
2588.22 0.0
2596.74 0.0
2605.26 0.0
2613.78 0.0
2622.31 0.0
2630.83 0.0
2639.35 0.0
2647.87 0.0
2656.39 0.0
2664.91 0.0
2673.43 0.0
2681.95 0.0
2690.48 0.0
2699 0.0
2707.52 0.0
2716.04 0.0
2724.56 0.0
2733.08 0.0
2741.6 0.0
2750.13 0.0
2758.65 0.0
2767.17 0.0
2775.69 0.0
2784.21 0.0
2792.73 0.0
2801.25 0.0
2809.77 0.0
2818.3 0.0
2826.82 0.0
2835.34 0.0
2843.86 0.0
2852.38 0.0
2860.9 0.0
2869.42 0.0
2877.94 0.0
2886.47 0.0
2894.99 0.0
2903.51 0.0
2912.03 0.0
2920.55 0.0
2929.07 0.0
2937.59 0.0
2946.12 0.0
2954.64 0.0
2963.16 0.0
2971.68 0.0
2980.2 0.0
2988.72 0.0
2997.24 0.0
3005.76 0.0
3014.29 0.0
3022.81 0.0
3031.33 0.0
3039.85 0.0
3048.37 0.0
3056.89 0.0
3065.41 0.0
3073.93 0.0
3082.46 0.0
3090.98 0.0
3099.5 0.0
3108.02 0.0
3116.54 0.0
3125.06 0.0
3133.58 0.0
3142.11 0.0
3150.63 0.0
3159.15 0.0
3167.67 0.0
3176.19 0.0
3184.71 0.0
3193.23 0.0
3201.75 0.0
3210.28 0.0
3218.8 0.0
3227.32 0.0
3235.84 0.0
3244.36 0.0
3252.88 0.0
3261.4 0.0
3269.92 0.0
3278.45 0.0
3286.97 0.0
3295.49 0.0
3304.01 0.0
3312.53 0.0
3321.05 0.0
3329.57 0.0
3338.1 0.0
3346.62 0.0
3355.14 0.0
3363.66 0.0
3372.18 0.0
3380.7 0.0
3389.22 0.0
3397.74 0.0
3406.27 0.0
3414.79 0.0
3423.31 0.0
3431.83 0.0
3440.35 0.0
3448.87 0.0
3457.39 0.0
3465.91 0.0
3474.44 0.0
3482.96 0.0
3491.48 0.0
3500.0 0.0